sensor,time,t,ax,ay,az,wx,wy,wz,lat,lon,alt,v_kmh,satellites,x,y
acc,1778672593.0,12.0,-0.074219,0.089844,-9.796875,,,,,,,,,,
acc,1778672593.0,12.0,-0.113281,0.089844,-9.835938,,,,,,,,,,
acc,1778672593.0,12.0,-0.113281,0.089844,-9.800781,,,,,,,,,,
acc,1778672593.0,12.0,-0.074219,0.050781,-9.800781,,,,,,,,,,
acc,1778672593.0,12.0,-0.074219,0.128906,-9.796875,,,,,,,,,,
acc,1778672593.0,12.0,-0.113281,0.089844,-9.800781,,,,,,,,,,
acc,1778672593.0,12.0,-0.113281,0.089844,-9.835938,,,,,,,,,,
acc,1778672593.0,12.0,-0.074219,0.089844,-9.796875,,,,,,,,,,
acc,1778672593.0,12.0,-0.113281,0.050781,-9.796875,,,,,,,,,,
acc,1778672593.0,12.0,-0.113281,0.089844,-9.800781,,,,,,,,,,
acc,1778672593.0,12.0,-0.074219,0.089844,-9.796875,,,,,,,,,,
acc,1778672593.0,12.0,-0.113281,0.089844,-9.757812,,,,,,,,,,
acc,1778672593.0,12.0,-0.113281,0.089844,-9.800781,,,,,,,,,,
acc,1778672593.0,12.0,-0.113281,0.050781,-9.796875,,,,,,,,,,
acc,1778672593.0,12.0,-0.113281,0.089844,-9.800781,,,,,,,,,,
acc,1778672593.0,12.0,-0.113281,0.089844,-9.800781,,,,,,,,,,
acc,1778672593.0,12.0,-0.152344,0.089844,-9.800781,,,,,,,,,,
acc,1778672593.0,12.0,-0.113281,0.050781,-9.796875,,,,,,,,,,
acc,1778672593.0,12.0,-0.074219,0.050781,-9.800781,,,,,,,,,,
acc,1778672593.0,12.0,-0.113281,0.089844,-9.800781,,,,,,,,,,
acc,1778672593.0,12.0,-0.113281,0.089844,-9.800781,,,,,,,,,,
acc,1778672593.0,12.0,-0.113281,0.089844,-9.800781,,,,,,,,,,
acc,1778672593.0,12.0,-0.113281,0.089844,-9.835938,,,,,,,,,,
acc,1778672593.0,12.0,-0.113281,0.089844,-9.757812,,,,,,,,,,
acc,1778672593.0,12.0,-0.113281,0.089844,-9.757812,,,,,,,,,,
acc,1778672593.0,12.0,-0.113281,0.089844,-9.800781,,,,,,,,,,
acc,1778672593.0,12.0,-0.074219,0.089844,-9.839844,,,,,,,,,,
acc,1778672593.0,12.0,-0.113281,0.050781,-9.839844,,,,,,,,,,
acc,1778672593.0,12.0,-0.074219,0.089844,-9.839844,,,,,,,,,,
acc,1778672593.0,12.0,-0.113281,0.089844,-9.800781,,,,,,,,,,
acc,1778672593.0,12.0,-0.113281,0.089844,-9.800781,,,,,,,,,,
acc,1778672593.0,12.0,-0.113281,0.089844,-9.800781,,,,,,,,,,
acc,1778672593.0,12.0,-0.113281,0.089844,-9.835938,,,,,,,,,,
acc,1778672593.0,12.0,-0.074219,0.089844,-9.796875,,,,,,,,,,
acc,1778672593.0,12.0,-0.113281,0.089844,-9.757812,,,,,,,,,,
acc,1778672593.0,12.0,-0.113281,0.089844,-9.800781,,,,,,,,,,
acc,1778672593.0,12.0,-0.035156,0.089844,-9.800781,,,,,,,,,,
acc,1778672593.0,12.0,-0.074219,0.089844,-9.796875,,,,,,,,,,
acc,1778672593.0,12.0,-0.074219,0.089844,-9.839844,,,,,,,,,,
acc,1778672593.0,12.0,-0.074219,0.128906,-9.839844,,,,,,,,,,
acc,1778672593.0,12.0,-0.113281,0.089844,-9.800781,,,,,,,,,,
acc,1778672593.0,12.0,-0.113281,0.089844,-9.800781,,,,,,,,,,
acc,1778672593.0,12.0,-0.074219,0.089844,-9.796875,,,,,,,,,,
acc,1778672593.0,12.0,-0.074219,0.089844,-9.761719,,,,,,,,,,
acc,1778672593.0,12.0,-0.074219,0.050781,-9.800781,,,,,,,,,,
acc,1778672593.0,12.0,-0.074219,0.089844,-9.839844,,,,,,,,,,
acc,1778672593.0,12.0,-0.074219,0.089844,-9.796875,,,,,,,,,,
acc,1778672593.0,12.0,-0.113281,0.050781,-9.796875,,,,,,,,,,
acc,1778672593.0,12.0,-0.113281,0.089844,-9.800781,,,,,,,,,,
acc,1778672593.0,12.0,-0.113281,0.089844,-9.757812,,,,,,,,,,
acc,1778672593.0,12.0,-0.113281,0.089844,-9.800781,,,,,,,,,,
acc,1778672593.0,12.0,-0.074219,0.089844,-9.796875,,,,,,,,,,
acc,1778672593.0,12.0,-0.113281,0.089844,-9.800781,,,,,,,,,,
acc,1778672593.0,12.0,-0.074219,0.050781,-9.800781,,,,,,,,,,
acc,1778672593.0,12.0,-0.074219,0.050781,-9.800781,,,,,,,,,,
acc,1778672593.0,12.0,-0.074219,0.050781,-9.800781,,,,,,,,,,
acc,1778672593.0,12.0,-0.113281,0.089844,-9.800781,,,,,,,,,,
acc,1778672593.0,12.0,-0.113281,0.089844,-9.800781,,,,,,,,,,
acc,1778672593.0,12.0,-0.113281,0.089844,-9.835938,,,,,,,,,,
acc,1778672593.0,12.0,-0.113281,0.089844,-9.835938,,,,,,,,,,
acc,1778672593.0,12.0,-0.113281,0.089844,-9.800781,,,,,,,,,,
acc,1778672593.0,12.0,-0.113281,0.089844,-9.800781,,,,,,,,,,
acc,1778672593.0,12.0,-0.113281,0.089844,-9.800781,,,,,,,,,,
acc,1778672593.0,12.0,-0.113281,0.050781,-9.839844,,,,,,,,,,
acc,1778672593.0,12.0,-0.074219,0.089844,-9.796875,,,,,,,,,,
acc,1778672593.0,12.0,-0.113281,0.050781,-9.796875,,,,,,,,,,
acc,1778672593.0,12.0,-0.074219,0.050781,-9.800781,,,,,,,,,,
acc,1778672593.0,12.0,-0.113281,0.089844,-9.800781,,,,,,,,,,
acc,1778672593.0,12.0,-0.113281,0.089844,-9.800781,,,,,,,,,,
acc,1778672593.0,12.0,-0.113281,0.089844,-9.800781,,,,,,,,,,
acc,1778672593.0,12.0,-0.113281,0.089844,-9.800781,,,,,,,,,,
acc,1778672593.0,12.0,-0.152344,0.089844,-9.835938,,,,,,,,,,
acc,1778672593.0,12.0,-0.113281,0.089844,-9.800781,,,,,,,,,,
acc,1778672593.0,12.0,-0.113281,0.089844,-9.800781,,,,,,,,,,
acc,1778672593.0,12.0,-0.074219,0.050781,-9.800781,,,,,,,,,,
acc,1778672593.0,12.0,-0.113281,0.089844,-9.835938,,,,,,,,,,
acc,1778672593.0,12.0,-0.074219,0.089844,-9.796875,,,,,,,,,,
acc,1778672593.0,12.0,-0.113281,0.089844,-9.800781,,,,,,,,,,
acc,1778672593.0,12.0,-0.113281,0.050781,-9.796875,,,,,,,,,,
acc,1778672593.0,12.0,-0.113281,0.089844,-9.757812,,,,,,,,,,
acc,1778672593.0,12.0,-0.113281,0.089844,-9.800781,,,,,,,,,,
acc,1778672593.0,12.0,-0.113281,0.089844,-9.800781,,,,,,,,,,
acc,1778672593.0,12.0,-0.113281,0.050781,-9.796875,,,,,,,,,,
acc,1778672593.0,12.0,-0.074219,0.050781,-9.835938,,,,,,,,,,
acc,1778672593.0,12.0,-0.074219,0.089844,-9.796875,,,,,,,,,,
acc,1778672593.0,12.0,-0.074219,0.089844,-9.796875,,,,,,,,,,
acc,1778672593.0,12.0,-0.074219,0.089844,-9.796875,,,,,,,,,,
acc,1778672593.0,12.0,-0.074219,0.089844,-9.796875,,,,,,,,,,
acc,1778672593.0,12.0,-0.074219,0.089844,-9.796875,,,,,,,,,,
acc,1778672593.0,12.0,-0.074219,0.128906,-9.761719,,,,,,,,,,
acc,1778672593.0,12.0,-0.113281,0.128906,-9.835938,,,,,,,,,,
acc,1778672593.0,12.0,-0.074219,0.089844,-9.796875,,,,,,,,,,
acc,1778672593.0,12.0,-0.074219,0.089844,-9.796875,,,,,,,,,,
acc,1778672593.0,12.0,-0.074219,0.089844,-9.796875,,,,,,,,,,
acc,1778672593.0,12.0,-0.074219,0.089844,-9.761719,,,,,,,,,,
acc,1778672593.0,12.0,-0.074219,0.089844,-9.796875,,,,,,,,,,
acc,1778672593.0,12.0,-0.074219,0.128906,-9.796875,,,,,,,,,,
acc,1778672593.0,12.0,-0.113281,0.128906,-9.800781,,,,,,,,,,
acc,1778672593.0,12.0,-0.113281,0.089844,-9.800781,,,,,,,,,,
acc,1778672593.0,12.0,-0.113281,0.128906,-9.757812,,,,,,,,,,
acc,1778672593.0,12.0,-0.113281,0.128906,-9.800781,,,,,,,,,,
acc,1778672593.0,12.0,-0.113281,0.128906,-9.800781,,,,,,,,,,
acc,1778672593.0,12.0,-0.074219,0.089844,-9.839844,,,,,,,,,,
acc,1778672593.0,12.0,-0.074219,0.089844,-9.796875,,,,,,,,,,
acc,1778672593.0,12.0,-0.113281,0.089844,-9.800781,,,,,,,,,,
acc,1778672593.0,12.0,-0.113281,0.089844,-9.835938,,,,,,,,,,
acc,1778672593.0,12.0,-0.113281,0.089844,-9.800781,,,,,,,,,,
acc,1778672593.0,12.0,-0.152344,0.089844,-9.757812,,,,,,,,,,
acc,1778672593.0,12.0,-0.113281,0.089844,-9.800781,,,,,,,,,,
acc,1778672593.0,12.0,-0.113281,0.089844,-9.800781,,,,,,,,,,
acc,1778672593.0,12.0,-0.113281,0.050781,-9.796875,,,,,,,,,,
acc,1778672593.0,12.0,-0.113281,0.050781,-9.839844,,,,,,,,,,
acc,1778672593.0,12.0,-0.113281,0.089844,-9.800781,,,,,,,,,,
acc,1778672593.0,12.0,-0.113281,0.089844,-9.800781,,,,,,,,,,
acc,1778672593.0,12.0,-0.113281,0.089844,-9.835938,,,,,,,,,,
acc,1778672593.0,12.0,-0.113281,0.089844,-9.800781,,,,,,,,,,
acc,1778672593.0,12.0,-0.113281,0.089844,-9.800781,,,,,,,,,,
acc,1778672593.0,12.0,-0.113281,0.050781,-9.796875,,,,,,,,,,
acc,1778672593.0,12.0,-0.113281,0.089844,-9.757812,,,,,,,,,,
acc,1778672593.0,12.0,-0.152344,0.089844,-9.757812,,,,,,,,,,
acc,1778672593.0,12.0,-0.113281,0.050781,-9.796875,,,,,,,,,,
acc,1778672593.0,12.0,-0.113281,0.089844,-9.835938,,,,,,,,,,
acc,1778672593.0,12.0,-0.113281,0.050781,-9.839844,,,,,,,,,,
acc,1778672593.0,12.0,-0.113281,0.089844,-9.800781,,,,,,,,,,
acc,1778672593.0,12.0,-0.074219,0.089844,-9.839844,,,,,,,,,,
acc,1778672593.0,12.0,-0.113281,0.050781,-9.839844,,,,,,,,,,
acc,1778672593.0,12.0,-0.074219,0.050781,-9.835938,,,,,,,,,,
acc,1778672593.0,12.0,-0.074219,0.050781,-9.835938,,,,,,,,,,
acc,1778672594.0,13.0,-0.074219,0.050781,-9.835938,,,,,,,,,,
acc,1778672594.0,13.0,-0.113281,0.089844,-9.800781,,,,,,,,,,
acc,1778672594.0,13.0,-0.074219,0.050781,-9.800781,,,,,,,,,,
acc,1778672594.0,13.0,-0.074219,0.011719,-9.796875,,,,,,,,,,
acc,1778672594.0,13.0,-0.074219,0.050781,-9.800781,,,,,,,,,,
acc,1778672594.0,13.0,-0.074219,0.050781,-9.800781,,,,,,,,,,
acc,1778672594.0,13.0,-0.074219,0.089844,-9.796875,,,,,,,,,,
acc,1778672594.0,13.0,-0.074219,0.089844,-9.796875,,,,,,,,,,
acc,1778672594.0,13.0,-0.074219,0.089844,-9.761719,,,,,,,,,,
acc,1778672594.0,13.0,-0.074219,0.089844,-9.761719,,,,,,,,,,
acc,1778672594.0,13.0,-0.113281,0.089844,-9.800781,,,,,,,,,,
acc,1778672594.0,13.0,-0.074219,0.089844,-9.796875,,,,,,,,,,
acc,1778672594.0,13.0,-0.074219,0.050781,-9.757812,,,,,,,,,,
acc,1778672594.0,13.0,-0.035156,0.089844,-9.800781,,,,,,,,,,
acc,1778672594.0,13.0,-0.074219,0.089844,-9.796875,,,,,,,,,,
acc,1778672594.0,13.0,-0.074219,0.089844,-9.796875,,,,,,,,,,
acc,1778672594.0,13.0,-0.113281,0.089844,-9.835938,,,,,,,,,,
acc,1778672594.0,13.0,-0.113281,0.128906,-9.800781,,,,,,,,,,
acc,1778672594.0,13.0,-0.113281,0.128906,-9.800781,,,,,,,,,,
acc,1778672594.0,13.0,-0.113281,0.128906,-9.835938,,,,,,,,,,
acc,1778672594.0,13.0,-0.113281,0.089844,-9.800781,,,,,,,,,,
acc,1778672594.0,13.0,-0.074219,0.089844,-9.796875,,,,,,,,,,
acc,1778672594.0,13.0,-0.074219,0.050781,-9.800781,,,,,,,,,,
acc,1778672594.0,13.0,-0.113281,0.050781,-9.839844,,,,,,,,,,
acc,1778672594.0,13.0,-0.113281,0.050781,-9.796875,,,,,,,,,,
acc,1778672594.0,13.0,-0.113281,0.050781,-9.839844,,,,,,,,,,
acc,1778672594.0,13.0,-0.113281,0.050781,-9.796875,,,,,,,,,,
acc,1778672594.0,13.0,-0.152344,0.089844,-9.800781,,,,,,,,,,
acc,1778672594.0,13.0,-0.113281,0.089844,-9.800781,,,,,,,,,,
acc,1778672594.0,13.0,-0.113281,0.089844,-9.800781,,,,,,,,,,
acc,1778672594.0,13.0,-0.113281,0.050781,-9.796875,,,,,,,,,,
acc,1778672594.0,13.0,-0.113281,0.089844,-9.800781,,,,,,,,,,
acc,1778672594.0,13.0,-0.113281,0.089844,-9.835938,,,,,,,,,,
acc,1778672594.0,13.0,-0.113281,0.089844,-9.835938,,,,,,,,,,
acc,1778672594.0,13.0,-0.113281,0.089844,-9.800781,,,,,,,,,,
acc,1778672594.0,13.0,-0.113281,0.089844,-9.800781,,,,,,,,,,
acc,1778672594.0,13.0,-0.113281,0.089844,-9.800781,,,,,,,,,,
acc,1778672594.0,13.0,-0.113281,0.128906,-9.800781,,,,,,,,,,
acc,1778672594.0,13.0,-0.152344,0.128906,-9.835938,,,,,,,,,,
acc,1778672594.0,13.0,-0.113281,0.128906,-9.800781,,,,,,,,,,
acc,1778672594.0,13.0,-0.113281,0.089844,-9.800781,,,,,,,,,,
acc,1778672594.0,13.0,-0.113281,0.128906,-9.800781,,,,,,,,,,
acc,1778672594.0,13.0,-0.074219,0.089844,-9.796875,,,,,,,,,,
acc,1778672594.0,13.0,-0.074219,0.089844,-9.839844,,,,,,,,,,
acc,1778672594.0,13.0,-0.113281,0.089844,-9.800781,,,,,,,,,,
acc,1778672594.0,13.0,-0.113281,0.089844,-9.835938,,,,,,,,,,
acc,1778672594.0,13.0,-0.113281,0.089844,-9.800781,,,,,,,,,,
acc,1778672594.0,13.0,-0.113281,0.089844,-9.757812,,,,,,,,,,
acc,1778672594.0,13.0,-0.074219,0.089844,-9.761719,,,,,,,,,,
acc,1778672594.0,13.0,-0.113281,0.089844,-9.757812,,,,,,,,,,
acc,1778672594.0,13.0,-0.074219,0.089844,-9.761719,,,,,,,,,,
acc,1778672594.0,13.0,-0.074219,0.089844,-9.839844,,,,,,,,,,
acc,1778672594.0,13.0,-0.035156,0.050781,-9.796875,,,,,,,,,,
acc,1778672594.0,13.0,-0.074219,0.089844,-9.796875,,,,,,,,,,
acc,1778672594.0,13.0,-0.074219,0.089844,-9.796875,,,,,,,,,,
acc,1778672594.0,13.0,-0.074219,0.089844,-9.796875,,,,,,,,,,
acc,1778672594.0,13.0,-0.074219,0.089844,-9.761719,,,,,,,,,,
acc,1778672594.0,13.0,-0.074219,0.089844,-9.796875,,,,,,,,,,
acc,1778672594.0,13.0,-0.074219,0.089844,-9.796875,,,,,,,,,,
acc,1778672594.0,13.0,-0.113281,0.089844,-9.800781,,,,,,,,,,
acc,1778672594.0,13.0,-0.074219,0.050781,-9.757812,,,,,,,,,,
acc,1778672594.0,13.0,-0.074219,0.050781,-9.800781,,,,,,,,,,
acc,1778672594.0,13.0,-0.074219,0.050781,-9.800781,,,,,,,,,,
acc,1778672594.0,13.0,-0.074219,0.089844,-9.796875,,,,,,,,,,
acc,1778672594.0,13.0,-0.074219,0.089844,-9.839844,,,,,,,,,,
acc,1778672594.0,13.0,-0.113281,0.128906,-9.800781,,,,,,,,,,
acc,1778672594.0,13.0,-0.113281,0.089844,-9.835938,,,,,,,,,,
acc,1778672594.0,13.0,-0.113281,0.089844,-9.800781,,,,,,,,,,
acc,1778672594.0,13.0,-0.113281,0.089844,-9.835938,,,,,,,,,,
acc,1778672594.0,13.0,-0.113281,0.089844,-9.835938,,,,,,,,,,
acc,1778672594.0,13.0,-0.074219,0.089844,-9.839844,,,,,,,,,,
acc,1778672594.0,13.0,-0.074219,0.050781,-9.835938,,,,,,,,,,
acc,1778672594.0,13.0,-0.113281,0.089844,-9.835938,,,,,,,,,,
acc,1778672594.0,13.0,-0.113281,0.050781,-9.796875,,,,,,,,,,
acc,1778672594.0,13.0,-0.113281,0.089844,-9.835938,,,,,,,,,,
acc,1778672594.0,13.0,-0.113281,0.089844,-9.800781,,,,,,,,,,
acc,1778672594.0,13.0,-0.074219,0.050781,-9.835938,,,,,,,,,,
acc,1778672594.0,13.0,-0.113281,0.089844,-9.800781,,,,,,,,,,
acc,1778672594.0,13.0,-0.113281,0.089844,-9.835938,,,,,,,,,,
acc,1778672594.0,13.0,-0.074219,0.089844,-9.796875,,,,,,,,,,
acc,1778672594.0,13.0,-0.074219,0.089844,-9.761719,,,,,,,,,,
acc,1778672594.0,13.0,-0.074219,0.050781,-9.835938,,,,,,,,,,
acc,1778672594.0,13.0,-0.113281,0.089844,-9.800781,,,,,,,,,,
acc,1778672594.0,13.0,-0.074219,0.089844,-9.839844,,,,,,,,,,
acc,1778672594.0,13.0,-0.113281,0.128906,-9.757812,,,,,,,,,,
acc,1778672594.0,13.0,-0.113281,0.089844,-9.835938,,,,,,,,,,
acc,1778672594.0,13.0,-0.113281,0.128906,-9.800781,,,,,,,,,,
acc,1778672594.0,13.0,-0.113281,0.089844,-9.800781,,,,,,,,,,
acc,1778672594.0,13.0,-0.113281,0.128906,-9.800781,,,,,,,,,,
acc,1778672594.0,13.0,-0.074219,0.050781,-9.800781,,,,,,,,,,
acc,1778672594.0,13.0,-0.113281,0.089844,-9.835938,,,,,,,,,,
acc,1778672594.0,13.0,-0.113281,0.050781,-9.796875,,,,,,,,,,
acc,1778672594.0,13.0,-0.113281,0.089844,-9.835938,,,,,,,,,,
acc,1778672594.0,13.0,-0.074219,0.050781,-9.800781,,,,,,,,,,
acc,1778672594.0,13.0,-0.113281,0.089844,-9.800781,,,,,,,,,,
acc,1778672594.0,13.0,-0.113281,0.050781,-9.761719,,,,,,,,,,
acc,1778672594.0,13.0,-0.113281,0.089844,-9.800781,,,,,,,,,,
acc,1778672594.0,13.0,-0.113281,0.050781,-9.796875,,,,,,,,,,
acc,1778672594.0,13.0,-0.113281,0.050781,-9.796875,,,,,,,,,,
acc,1778672594.0,13.0,-0.074219,0.050781,-9.800781,,,,,,,,,,
acc,1778672594.0,13.0,-0.074219,0.050781,-9.757812,,,,,,,,,,
acc,1778672594.0,13.0,-0.113281,0.050781,-9.796875,,,,,,,,,,
acc,1778672594.0,13.0,-0.113281,0.089844,-9.757812,,,,,,,,,,
acc,1778672594.0,13.0,-0.113281,0.089844,-9.800781,,,,,,,,,,
acc,1778672594.0,13.0,-0.152344,0.089844,-9.800781,,,,,,,,,,
acc,1778672594.0,13.0,-0.113281,0.089844,-9.800781,,,,,,,,,,
acc,1778672594.0,13.0,-0.113281,0.089844,-9.835938,,,,,,,,,,
acc,1778672594.0,13.0,-0.113281,0.089844,-9.800781,,,,,,,,,,
acc,1778672594.0,13.0,-0.113281,0.089844,-9.800781,,,,,,,,,,
acc,1778672594.0,13.0,-0.074219,0.089844,-9.796875,,,,,,,,,,
acc,1778672594.0,13.0,-0.113281,0.050781,-9.796875,,,,,,,,,,
acc,1778672594.0,13.0,-0.113281,0.089844,-9.800781,,,,,,,,,,
acc,1778672594.0,13.0,-0.113281,0.089844,-9.800781,,,,,,,,,,
acc,1778672594.0,13.0,-0.113281,0.089844,-9.757812,,,,,,,,,,
acc,1778672594.0,13.0,-0.113281,0.089844,-9.800781,,,,,,,,,,
acc,1778672594.0,13.0,-0.113281,0.089844,-9.835938,,,,,,,,,,
acc,1778672594.0,13.0,-0.113281,0.089844,-9.800781,,,,,,,,,,
acc,1778672594.0,13.0,-0.074219,0.089844,-9.796875,,,,,,,,,,
acc,1778672594.0,13.0,-0.113281,0.050781,-9.796875,,,,,,,,,,
acc,1778672594.0,13.0,-0.074219,0.089844,-9.761719,,,,,,,,,,
acc,1778672594.0,13.0,-0.074219,0.089844,-9.796875,,,,,,,,,,
acc,1778672594.0,13.0,-0.074219,0.089844,-9.796875,,,,,,,,,,
acc,1778672594.0,13.0,-0.113281,0.128906,-9.835938,,,,,,,,,,
acc,1778672594.0,13.0,-0.113281,0.128906,-9.800781,,,,,,,,,,
acc,1778672594.0,13.0,-0.113281,0.128906,-9.800781,,,,,,,,,,
acc,1778672594.0,13.0,-0.152344,0.128906,-9.800781,,,,,,,,,,
acc,1778672594.0,13.0,-0.113281,0.089844,-9.800781,,,,,,,,,,
acc,1778672594.0,13.0,-0.074219,0.089844,-9.796875,,,,,,,,,,
acc,1778672595.0,14.0,-0.074219,0.089844,-9.796875,,,,,,,,,,
acc,1778672595.0,14.0,-0.074219,0.089844,-9.761719,,,,,,,,,,
acc,1778672595.0,14.0,-0.074219,0.128906,-9.796875,,,,,,,,,,
acc,1778672595.0,14.0,-0.074219,0.089844,-9.796875,,,,,,,,,,
acc,1778672595.0,14.0,-0.074219,0.089844,-9.796875,,,,,,,,,,
acc,1778672595.0,14.0,-0.074219,0.089844,-9.761719,,,,,,,,,,
acc,1778672595.0,14.0,-0.113281,0.089844,-9.800781,,,,,,,,,,
acc,1778672595.0,14.0,-0.074219,0.089844,-9.796875,,,,,,,,,,
acc,1778672595.0,14.0,-0.074219,0.089844,-9.796875,,,,,,,,,,
acc,1778672595.0,14.0,-0.074219,0.089844,-9.796875,,,,,,,,,,
acc,1778672595.0,14.0,-0.074219,0.050781,-9.800781,,,,,,,,,,
acc,1778672595.0,14.0,-0.074219,0.089844,-9.796875,,,,,,,,,,
acc,1778672595.0,14.0,-0.074219,0.089844,-9.839844,,,,,,,,,,
acc,1778672595.0,14.0,-0.113281,0.089844,-9.800781,,,,,,,,,,
acc,1778672595.0,14.0,-0.113281,0.089844,-9.800781,,,,,,,,,,
acc,1778672595.0,14.0,-0.113281,0.089844,-9.800781,,,,,,,,,,
acc,1778672595.0,14.0,-0.113281,0.089844,-9.800781,,,,,,,,,,
acc,1778672595.0,14.0,-0.113281,0.089844,-9.800781,,,,,,,,,,
acc,1778672595.0,14.0,-0.113281,0.089844,-9.800781,,,,,,,,,,
acc,1778672595.0,14.0,-0.113281,0.050781,-9.839844,,,,,,,,,,
acc,1778672595.0,14.0,-0.113281,0.050781,-9.796875,,,,,,,,,,
acc,1778672595.0,14.0,-0.113281,0.050781,-9.796875,,,,,,,,,,
acc,1778672595.0,14.0,-0.113281,0.089844,-9.800781,,,,,,,,,,
acc,1778672595.0,14.0,-0.113281,0.050781,-9.796875,,,,,,,,,,
acc,1778672595.0,14.0,-0.152344,0.089844,-9.835938,,,,,,,,,,
acc,1778672595.0,14.0,-0.152344,0.050781,-9.796875,,,,,,,,,,
acc,1778672595.0,14.0,-0.113281,0.050781,-9.839844,,,,,,,,,,
acc,1778672595.0,14.0,-0.113281,0.089844,-9.800781,,,,,,,,,,
acc,1778672595.0,14.0,-0.113281,0.050781,-9.796875,,,,,,,,,,
acc,1778672595.0,14.0,-0.113281,0.050781,-9.796875,,,,,,,,,,
acc,1778672595.0,14.0,-0.074219,0.050781,-9.800781,,,,,,,,,,
acc,1778672595.0,14.0,-0.074219,0.089844,-9.796875,,,,,,,,,,
acc,1778672595.0,14.0,-0.113281,0.089844,-9.835938,,,,,,,,,,
acc,1778672595.0,14.0,-0.113281,0.089844,-9.800781,,,,,,,,,,
acc,1778672595.0,14.0,-0.113281,0.089844,-9.800781,,,,,,,,,,
acc,1778672595.0,14.0,-0.113281,0.089844,-9.800781,,,,,,,,,,
acc,1778672595.0,14.0,-0.074219,0.089844,-9.796875,,,,,,,,,,
acc,1778672595.0,14.0,-0.113281,0.089844,-9.800781,,,,,,,,,,
acc,1778672595.0,14.0,-0.113281,0.089844,-9.835938,,,,,,,,,,
acc,1778672595.0,14.0,-0.074219,0.089844,-9.839844,,,,,,,,,,
acc,1778672595.0,14.0,-0.074219,0.089844,-9.796875,,,,,,,,,,
acc,1778672595.0,14.0,-0.074219,0.089844,-9.796875,,,,,,,,,,
acc,1778672595.0,14.0,-0.074219,0.128906,-9.839844,,,,,,,,,,
acc,1778672595.0,14.0,-0.074219,0.089844,-9.796875,,,,,,,,,,
acc,1778672595.0,14.0,-0.113281,0.128906,-9.800781,,,,,,,,,,
acc,1778672595.0,14.0,-0.074219,0.089844,-9.796875,,,,,,,,,,
acc,1778672595.0,14.0,-0.074219,0.089844,-9.796875,,,,,,,,,,
acc,1778672595.0,14.0,-0.074219,0.089844,-9.796875,,,,,,,,,,
acc,1778672595.0,14.0,-0.074219,0.089844,-9.796875,,,,,,,,,,
acc,1778672595.0,14.0,-0.074219,0.089844,-9.796875,,,,,,,,,,
acc,1778672595.0,14.0,-0.074219,0.089844,-9.796875,,,,,,,,,,
acc,1778672595.0,14.0,-0.074219,0.089844,-9.796875,,,,,,,,,,
acc,1778672595.0,14.0,-0.074219,0.089844,-9.796875,,,,,,,,,,
acc,1778672595.0,14.0,-0.113281,0.089844,-9.800781,,,,,,,,,,
acc,1778672595.0,14.0,-0.113281,0.089844,-9.800781,,,,,,,,,,
acc,1778672595.0,14.0,-0.113281,0.089844,-9.800781,,,,,,,,,,
acc,1778672595.0,14.0,-0.113281,0.089844,-9.800781,,,,,,,,,,
acc,1778672595.0,14.0,-0.113281,0.089844,-9.800781,,,,,,,,,,
acc,1778672595.0,14.0,-0.074219,0.089844,-9.796875,,,,,,,,,,
acc,1778672595.0,14.0,-0.074219,0.089844,-9.796875,,,,,,,,,,
acc,1778672595.0,14.0,-0.113281,0.089844,-9.800781,,,,,,,,,,
acc,1778672595.0,14.0,-0.113281,0.089844,-9.800781,,,,,,,,,,
acc,1778672595.0,14.0,-0.113281,0.089844,-9.757812,,,,,,,,,,
acc,1778672595.0,14.0,-0.113281,0.089844,-9.800781,,,,,,,,,,
acc,1778672595.0,14.0,-0.113281,0.089844,-9.800781,,,,,,,,,,
acc,1778672595.0,14.0,-0.152344,0.089844,-9.800781,,,,,,,,,,
acc,1778672595.0,14.0,-0.113281,0.089844,-9.835938,,,,,,,,,,
acc,1778672595.0,14.0,-0.074219,0.050781,-9.800781,,,,,,,,,,
acc,1778672595.0,14.0,-0.113281,0.050781,-9.796875,,,,,,,,,,
acc,1778672595.0,14.0,-0.113281,0.050781,-9.796875,,,,,,,,,,
acc,1778672595.0,14.0,-0.113281,0.089844,-9.800781,,,,,,,,,,
acc,1778672595.0,14.0,-0.113281,0.089844,-9.835938,,,,,,,,,,
acc,1778672595.0,14.0,-0.113281,0.089844,-9.800781,,,,,,,,,,
acc,1778672595.0,14.0,-0.152344,0.050781,-9.839844,,,,,,,,,,
acc,1778672595.0,14.0,-0.113281,0.089844,-9.800781,,,,,,,,,,
acc,1778672595.0,14.0,-0.113281,0.089844,-9.800781,,,,,,,,,,
acc,1778672595.0,14.0,-0.113281,0.089844,-9.800781,,,,,,,,,,
acc,1778672595.0,14.0,-0.074219,0.050781,-9.835938,,,,,,,,,,
acc,1778672595.0,14.0,-0.074219,0.089844,-9.839844,,,,,,,,,,
acc,1778672595.0,14.0,-0.074219,0.089844,-9.796875,,,,,,,,,,
acc,1778672595.0,14.0,-0.113281,0.089844,-9.757812,,,,,,,,,,
acc,1778672595.0,14.0,-0.113281,0.089844,-9.800781,,,,,,,,,,
acc,1778672595.0,14.0,-0.113281,0.089844,-9.800781,,,,,,,,,,
acc,1778672595.0,14.0,-0.113281,0.089844,-9.835938,,,,,,,,,,
acc,1778672595.0,14.0,-0.074219,0.089844,-9.796875,,,,,,,,,,
acc,1778672595.0,14.0,-0.113281,0.089844,-9.757812,,,,,,,,,,
acc,1778672595.0,14.0,-0.074219,0.089844,-9.761719,,,,,,,,,,
acc,1778672595.0,14.0,-0.113281,0.089844,-9.757812,,,,,,,,,,
acc,1778672595.0,14.0,-0.074219,0.089844,-9.796875,,,,,,,,,,
acc,1778672595.0,14.0,-0.074219,0.089844,-9.796875,,,,,,,,,,
acc,1778672595.0,14.0,-0.074219,0.089844,-9.796875,,,,,,,,,,
acc,1778672595.0,14.0,-0.074219,0.089844,-9.796875,,,,,,,,,,
acc,1778672595.0,14.0,-0.074219,0.089844,-9.761719,,,,,,,,,,
acc,1778672595.0,14.0,-0.113281,0.089844,-9.800781,,,,,,,,,,
acc,1778672595.0,14.0,-0.074219,0.089844,-9.796875,,,,,,,,,,
acc,1778672595.0,14.0,-0.074219,0.089844,-9.761719,,,,,,,,,,
acc,1778672595.0,14.0,-0.074219,0.089844,-9.796875,,,,,,,,,,
acc,1778672595.0,14.0,-0.074219,0.089844,-9.796875,,,,,,,,,,
acc,1778672595.0,14.0,-0.113281,0.089844,-9.835938,,,,,,,,,,
acc,1778672595.0,14.0,-0.074219,0.089844,-9.796875,,,,,,,,,,
acc,1778672595.0,14.0,-0.074219,0.089844,-9.796875,,,,,,,,,,
acc,1778672595.0,14.0,-0.113281,0.089844,-9.757812,,,,,,,,,,
acc,1778672595.0,14.0,-0.113281,0.089844,-9.835938,,,,,,,,,,
acc,1778672595.0,14.0,-0.113281,0.089844,-9.800781,,,,,,,,,,
acc,1778672595.0,14.0,-0.113281,0.089844,-9.800781,,,,,,,,,,
acc,1778672595.0,14.0,-0.113281,0.089844,-9.800781,,,,,,,,,,
acc,1778672595.0,14.0,-0.113281,0.089844,-9.800781,,,,,,,,,,
acc,1778672595.0,14.0,-0.113281,0.089844,-9.800781,,,,,,,,,,
acc,1778672595.0,14.0,-0.113281,0.089844,-9.800781,,,,,,,,,,
acc,1778672595.0,14.0,-0.113281,0.089844,-9.835938,,,,,,,,,,
acc,1778672595.0,14.0,-0.152344,0.089844,-9.800781,,,,,,,,,,
acc,1778672595.0,14.0,-0.113281,0.089844,-9.800781,,,,,,,,,,
acc,1778672595.0,14.0,-0.113281,0.089844,-9.800781,,,,,,,,,,
acc,1778672595.0,14.0,-0.152344,0.089844,-9.800781,,,,,,,,,,
acc,1778672595.0,14.0,-0.152344,0.089844,-9.800781,,,,,,,,,,
acc,1778672595.0,14.0,-0.152344,0.050781,-9.796875,,,,,,,,,,
acc,1778672595.0,14.0,-0.152344,0.089844,-9.835938,,,,,,,,,,
acc,1778672595.0,14.0,-0.152344,0.050781,-9.796875,,,,,,,,,,
acc,1778672595.0,14.0,-0.152344,0.089844,-9.800781,,,,,,,,,,
acc,1778672595.0,14.0,-0.152344,0.050781,-9.796875,,,,,,,,,,
acc,1778672595.0,14.0,-0.152344,0.089844,-9.800781,,,,,,,,,,
acc,1778672595.0,14.0,-0.191406,0.089844,-9.796875,,,,,,,,,,
acc,1778672595.0,14.0,-0.191406,0.089844,-9.796875,,,,,,,,,,
acc,1778672595.0,14.0,-0.191406,0.089844,-9.761719,,,,,,,,,,
acc,1778672595.0,14.0,-0.191406,0.089844,-9.761719,,,,,,,,,,
acc,1778672595.0,14.0,-0.191406,0.089844,-9.796875,,,,,,,,,,
acc,1778672595.0,14.0,-0.226562,0.089844,-9.757812,,,,,,,,,,
acc,1778672595.0,14.0,-0.226562,0.089844,-9.800781,,,,,,,,,,
acc,1778672595.0,14.0,-0.226562,0.089844,-9.757812,,,,,,,,,,
acc,1778672596.0,15.0,-0.226562,0.089844,-9.757812,,,,,,,,,,
acc,1778672596.0,15.0,-0.265625,0.089844,-9.761719,,,,,,,,,,
acc,1778672596.0,15.0,-0.265625,0.128906,-9.761719,,,,,,,,,,
acc,1778672596.0,15.0,-0.265625,0.128906,-9.761719,,,,,,,,,,
acc,1778672596.0,15.0,-0.265625,0.089844,-9.761719,,,,,,,,,,
acc,1778672596.0,15.0,-0.265625,0.128906,-9.796875,,,,,,,,,,
acc,1778672596.0,15.0,-0.265625,0.128906,-9.796875,,,,,,,,,,
acc,1778672596.0,15.0,-0.265625,0.089844,-9.796875,,,,,,,,,,
acc,1778672596.0,15.0,-0.304688,0.128906,-9.796875,,,,,,,,,,
acc,1778672596.0,15.0,-0.34375,0.089844,-9.757812,,,,,,,,,,
acc,1778672596.0,15.0,-0.304688,0.089844,-9.796875,,,,,,,,,,
acc,1778672596.0,15.0,-0.34375,0.128906,-9.800781,,,,,,,,,,
acc,1778672596.0,15.0,-0.34375,0.089844,-9.800781,,,,,,,,,,
acc,1778672596.0,15.0,-0.34375,0.089844,-9.800781,,,,,,,,,,
acc,1778672596.0,15.0,-0.382812,0.050781,-9.796875,,,,,,,,,,
acc,1778672596.0,15.0,-0.382812,0.050781,-9.796875,,,,,,,,,,
acc,1778672596.0,15.0,-0.382812,0.050781,-9.796875,,,,,,,,,,
acc,1778672596.0,15.0,-0.382812,0.050781,-9.839844,,,,,,,,,,
acc,1778672596.0,15.0,-0.382812,0.050781,-9.796875,,,,,,,,,,
acc,1778672596.0,15.0,-0.382812,0.050781,-9.796875,,,,,,,,,,
acc,1778672596.0,15.0,-0.382812,0.050781,-9.796875,,,,,,,,,,
acc,1778672596.0,15.0,-0.417969,0.089844,-9.835938,,,,,,,,,,
acc,1778672596.0,15.0,-0.417969,0.050781,-9.796875,,,,,,,,,,
acc,1778672596.0,15.0,-0.417969,0.050781,-9.761719,,,,,,,,,,
acc,1778672596.0,15.0,-0.417969,0.050781,-9.796875,,,,,,,,,,
acc,1778672596.0,15.0,-0.417969,0.050781,-9.796875,,,,,,,,,,
acc,1778672596.0,15.0,-0.417969,0.050781,-9.839844,,,,,,,,,,
acc,1778672596.0,15.0,-0.457031,0.050781,-9.796875,,,,,,,,,,
acc,1778672596.0,15.0,-0.457031,0.050781,-9.796875,,,,,,,,,,
acc,1778672596.0,15.0,-0.496094,0.050781,-9.796875,,,,,,,,,,
acc,1778672596.0,15.0,-0.457031,0.050781,-9.796875,,,,,,,,,,
acc,1778672596.0,15.0,-0.496094,0.050781,-9.796875,,,,,,,,,,
acc,1778672596.0,15.0,-0.496094,0.050781,-9.839844,,,,,,,,,,
acc,1778672596.0,15.0,-0.496094,0.050781,-9.796875,,,,,,,,,,
acc,1778672596.0,15.0,-0.496094,0.050781,-9.839844,,,,,,,,,,
acc,1778672596.0,15.0,-0.496094,0.011719,-9.835938,,,,,,,,,,
acc,1778672596.0,15.0,-0.496094,0.011719,-9.800781,,,,,,,,,,
acc,1778672596.0,15.0,-0.535156,0.011719,-9.800781,,,,,,,,,,
acc,1778672596.0,15.0,-0.535156,0.050781,-9.839844,,,,,,,,,,
acc,1778672596.0,15.0,-0.574219,0.089844,-9.839844,,,,,,,,,,
acc,1778672596.0,15.0,-0.574219,0.050781,-9.835938,,,,,,,,,,
acc,1778672596.0,15.0,-0.574219,0.050781,-9.800781,,,,,,,,,,
acc,1778672596.0,15.0,-0.535156,0.050781,-9.796875,,,,,,,,,,
acc,1778672596.0,15.0,-0.574219,0.050781,-9.800781,,,,,,,,,,
acc,1778672596.0,15.0,-0.574219,0.050781,-9.875,,,,,,,,,,
acc,1778672596.0,15.0,-0.574219,0.050781,-9.800781,,,,,,,,,,
acc,1778672596.0,15.0,-0.574219,0.089844,-9.796875,,,,,,,,,,
acc,1778672596.0,15.0,-0.613281,0.050781,-9.796875,,,,,,,,,,
acc,1778672596.0,15.0,-0.613281,0.050781,-9.761719,,,,,,,,,,
acc,1778672596.0,15.0,-0.648438,0.050781,-9.800781,,,,,,,,,,
acc,1778672596.0,15.0,-0.648438,0.050781,-9.835938,,,,,,,,,,
acc,1778672596.0,15.0,-0.6875,0.089844,-9.835938,,,,,,,,,,
acc,1778672596.0,15.0,-0.648438,0.089844,-9.796875,,,,,,,,,,
acc,1778672596.0,15.0,-0.648438,0.050781,-9.800781,,,,,,,,,,
acc,1778672596.0,15.0,-0.613281,0.089844,-9.800781,,,,,,,,,,
acc,1778672596.0,15.0,-0.613281,0.089844,-9.835938,,,,,,,,,,
acc,1778672596.0,15.0,-0.648438,0.050781,-9.835938,,,,,,,,,,
acc,1778672596.0,15.0,-0.6875,0.089844,-9.835938,,,,,,,,,,
acc,1778672596.0,15.0,-0.6875,0.089844,-9.835938,,,,,,,,,,
acc,1778672596.0,15.0,-0.6875,0.089844,-9.800781,,,,,,,,,,
acc,1778672596.0,15.0,-0.6875,0.089844,-9.800781,,,,,,,,,,
acc,1778672596.0,15.0,-0.6875,0.128906,-9.800781,,,,,,,,,,
acc,1778672596.0,15.0,-0.726562,0.089844,-9.800781,,,,,,,,,,
acc,1778672596.0,15.0,-0.726562,0.089844,-9.835938,,,,,,,,,,
acc,1778672596.0,15.0,-0.726562,0.050781,-9.839844,,,,,,,,,,
acc,1778672596.0,15.0,-0.726562,0.089844,-9.835938,,,,,,,,,,
acc,1778672596.0,15.0,-0.765625,0.089844,-9.839844,,,,,,,,,,
acc,1778672596.0,15.0,-0.765625,0.089844,-9.796875,,,,,,,,,,
acc,1778672596.0,15.0,-0.765625,0.089844,-9.839844,,,,,,,,,,
acc,1778672596.0,15.0,-0.804688,0.089844,-9.796875,,,,,,,,,,
acc,1778672596.0,15.0,-0.804688,0.089844,-9.796875,,,,,,,,,,
acc,1778672596.0,15.0,-0.804688,0.089844,-9.839844,,,,,,,,,,
acc,1778672596.0,15.0,-0.804688,0.089844,-9.796875,,,,,,,,,,
acc,1778672596.0,15.0,-0.804688,0.089844,-9.839844,,,,,,,,,,
acc,1778672596.0,15.0,-0.804688,0.089844,-9.796875,,,,,,,,,,
acc,1778672596.0,15.0,-0.839844,0.089844,-9.800781,,,,,,,,,,
acc,1778672596.0,15.0,-0.878906,0.050781,-9.839844,,,,,,,,,,
acc,1778672596.0,15.0,-0.878906,0.089844,-9.800781,,,,,,,,,,
acc,1778672596.0,15.0,-0.878906,0.089844,-9.800781,,,,,,,,,,
acc,1778672596.0,15.0,-0.878906,0.089844,-9.800781,,,,,,,,,,
acc,1778672596.0,15.0,-0.917969,0.050781,-9.796875,,,,,,,,,,
acc,1778672596.0,15.0,-0.917969,0.050781,-9.796875,,,,,,,,,,
acc,1778672596.0,15.0,-0.917969,0.050781,-9.839844,,,,,,,,,,
acc,1778672596.0,15.0,-0.917969,0.050781,-9.796875,,,,,,,,,,
acc,1778672596.0,15.0,-0.917969,0.050781,-9.839844,,,,,,,,,,
acc,1778672596.0,15.0,-0.917969,0.011719,-9.800781,,,,,,,,,,
acc,1778672596.0,15.0,-0.957031,0.011719,-9.800781,,,,,,,,,,
acc,1778672596.0,15.0,-0.957031,0.050781,-9.761719,,,,,,,,,,
acc,1778672596.0,15.0,-0.996094,0.050781,-9.796875,,,,,,,,,,
acc,1778672596.0,15.0,-0.996094,0.050781,-9.796875,,,,,,,,,,
acc,1778672596.0,15.0,-1.03125,0.050781,-9.800781,,,,,,,,,,
acc,1778672596.0,15.0,-1.03125,0.050781,-9.800781,,,,,,,,,,
acc,1778672596.0,15.0,-1.070312,0.050781,-9.796875,,,,,,,,,,
acc,1778672596.0,15.0,-1.070312,0.050781,-9.796875,,,,,,,,,,
acc,1778672596.0,15.0,-1.070312,0.050781,-9.796875,,,,,,,,,,
acc,1778672596.0,15.0,-1.070312,0.050781,-9.839844,,,,,,,,,,
acc,1778672596.0,15.0,-1.109375,0.050781,-9.835938,,,,,,,,,,
acc,1778672596.0,15.0,-1.148438,0.050781,-9.800781,,,,,,,,,,
acc,1778672596.0,15.0,-1.148438,0.089844,-9.796875,,,,,,,,,,
acc,1778672596.0,15.0,-1.1875,0.089844,-9.800781,,,,,,,,,,
acc,1778672596.0,15.0,-1.222656,0.089844,-9.835938,,,,,,,,,,
acc,1778672596.0,15.0,-1.222656,0.089844,-9.757812,,,,,,,,,,
acc,1778672596.0,15.0,-1.261719,0.089844,-9.835938,,,,,,,,,,
acc,1778672596.0,15.0,-1.222656,0.089844,-9.835938,,,,,,,,,,
acc,1778672596.0,15.0,-1.222656,0.050781,-9.796875,,,,,,,,,,
acc,1778672596.0,15.0,-1.300781,0.089844,-9.796875,,,,,,,,,,
acc,1778672596.0,15.0,-1.300781,0.089844,-9.761719,,,,,,,,,,
acc,1778672596.0,15.0,-1.300781,0.089844,-9.796875,,,,,,,,,,
acc,1778672596.0,15.0,-1.339844,0.089844,-9.800781,,,,,,,,,,
acc,1778672596.0,15.0,-1.339844,0.128906,-9.800781,,,,,,,,,,
acc,1778672596.0,15.0,-1.378906,0.089844,-9.835938,,,,,,,,,,
acc,1778672596.0,15.0,-1.378906,0.089844,-9.800781,,,,,,,,,,
acc,1778672596.0,15.0,-1.339844,0.089844,-9.800781,,,,,,,,,,
acc,1778672596.0,15.0,-1.378906,0.089844,-9.835938,,,,,,,,,,
acc,1778672596.0,15.0,-1.414062,0.089844,-9.796875,,,,,,,,,,
acc,1778672596.0,15.0,-1.453125,0.089844,-9.796875,,,,,,,,,,
acc,1778672596.0,15.0,-1.453125,0.089844,-9.839844,,,,,,,,,,
acc,1778672596.0,15.0,-1.492188,0.050781,-9.800781,,,,,,,,,,
acc,1778672596.0,15.0,-1.492188,0.050781,-9.835938,,,,,,,,,,
acc,1778672596.0,15.0,-1.570312,0.050781,-9.796875,,,,,,,,,,
acc,1778672596.0,15.0,-1.53125,0.011719,-9.796875,,,,,,,,,,
acc,1778672596.0,15.0,-1.570312,0.050781,-9.761719,,,,,,,,,,
acc,1778672596.0,15.0,-1.570312,0.050781,-9.839844,,,,,,,,,,
acc,1778672596.0,15.0,-1.570312,0.050781,-9.796875,,,,,,,,,,
acc,1778672596.0,15.0,-1.53125,0.089844,-9.839844,,,,,,,,,,
acc,1778672596.0,15.0,-1.53125,0.050781,-9.800781,,,,,,,,,,
acc,1778672596.0,15.0,-1.570312,0.050781,-9.839844,,,,,,,,,,
acc,1778672596.0,15.0,-1.644531,0.050781,-9.835938,,,,,,,,,,
acc,1778672597.0,16.0,-1.683594,0.050781,-9.800781,,,,,,,,,,
acc,1778672597.0,16.0,-1.683594,0.050781,-9.800781,,,,,,,,,,
acc,1778672597.0,16.0,-1.683594,0.089844,-9.796875,,,,,,,,,,
acc,1778672597.0,16.0,-1.683594,0.128906,-9.839844,,,,,,,,,,
acc,1778672597.0,16.0,-1.683594,0.128906,-9.796875,,,,,,,,,,
acc,1778672597.0,16.0,-1.683594,0.128906,-9.796875,,,,,,,,,,
acc,1778672597.0,16.0,-1.722656,0.089844,-9.800781,,,,,,,,,,
acc,1778672597.0,16.0,-1.800781,0.089844,-9.796875,,,,,,,,,,
acc,1778672597.0,16.0,-1.800781,0.089844,-9.839844,,,,,,,,,,
acc,1778672597.0,16.0,-1.761719,0.050781,-9.761719,,,,,,,,,,
acc,1778672597.0,16.0,-1.761719,0.089844,-9.835938,,,,,,,,,,
acc,1778672597.0,16.0,-1.761719,0.050781,-9.761719,,,,,,,,,,
acc,1778672597.0,16.0,-1.800781,0.050781,-9.800781,,,,,,,,,,
acc,1778672597.0,16.0,-1.800781,0.011719,-9.839844,,,,,,,,,,
acc,1778672597.0,16.0,-1.800781,0.011719,-9.796875,,,,,,,,,,
acc,1778672597.0,16.0,-1.835938,0.089844,-9.839844,,,,,,,,,,
acc,1778672597.0,16.0,-1.875,0.089844,-9.839844,,,,,,,,,,
acc,1778672597.0,16.0,-1.914062,0.128906,-9.839844,,,,,,,,,,
acc,1778672597.0,16.0,-1.914062,0.128906,-9.878906,,,,,,,,,,
acc,1778672597.0,16.0,-1.953125,0.128906,-9.796875,,,,,,,,,,
acc,1778672597.0,16.0,-1.953125,0.089844,-9.839844,,,,,,,,,,
acc,1778672597.0,16.0,-1.953125,0.128906,-9.796875,,,,,,,,,,
acc,1778672597.0,16.0,-1.953125,0.089844,-9.839844,,,,,,,,,,
acc,1778672597.0,16.0,-1.953125,0.089844,-9.839844,,,,,,,,,,
acc,1778672597.0,16.0,-1.953125,0.089844,-9.839844,,,,,,,,,,
acc,1778672597.0,16.0,-1.914062,0.011719,-9.878906,,,,,,,,,,
acc,1778672597.0,16.0,-1.953125,0.011719,-9.839844,,,,,,,,,,
acc,1778672597.0,16.0,-1.953125,0.011719,-9.796875,,,,,,,,,,
acc,1778672597.0,16.0,-1.953125,0.089844,-9.839844,,,,,,,,,,
acc,1778672597.0,16.0,-1.992188,0.128906,-9.878906,,,,,,,,,,
acc,1778672597.0,16.0,-1.992188,0.164062,-9.835938,,,,,,,,,,
acc,1778672597.0,16.0,-1.992188,0.128906,-9.878906,,,,,,,,,,
acc,1778672597.0,16.0,-1.992188,0.164062,-9.875,,,,,,,,,,
acc,1778672597.0,16.0,-1.992188,0.203125,-9.875,,,,,,,,,,
acc,1778672597.0,16.0,-2.027344,0.164062,-9.875,,,,,,,,,,
acc,1778672597.0,16.0,-2.027344,0.128906,-9.878906,,,,,,,,,,
acc,1778672597.0,16.0,-2.066406,0.128906,-9.800781,,,,,,,,,,
acc,1778672597.0,16.0,-2.066406,0.089844,-9.800781,,,,,,,,,,
acc,1778672597.0,16.0,-2.027344,0.050781,-9.875,,,,,,,,,,
acc,1778672597.0,16.0,-1.992188,0.128906,-9.796875,,,,,,,,,,
acc,1778672597.0,16.0,-2.027344,0.011719,-9.796875,,,,,,,,,,
acc,1778672597.0,16.0,-1.992188,0.050781,-9.875,,,,,,,,,,
acc,1778672597.0,16.0,-1.953125,0.089844,-9.839844,,,,,,,,,,
acc,1778672597.0,16.0,-1.992188,0.089844,-9.796875,,,,,,,,,,
acc,1778672597.0,16.0,-1.992188,0.089844,-9.839844,,,,,,,,,,
acc,1778672597.0,16.0,-2.027344,0.089844,-9.839844,,,,,,,,,,
acc,1778672597.0,16.0,-1.992188,0.128906,-9.917969,,,,,,,,,,
acc,1778672597.0,16.0,-1.992188,0.242188,-9.800781,,,,,,,,,,
acc,1778672597.0,16.0,-2.027344,0.242188,-9.875,,,,,,,,,,
acc,1778672597.0,16.0,-2.027344,0.203125,-9.835938,,,,,,,,,,
acc,1778672597.0,16.0,-2.027344,0.203125,-9.800781,,,,,,,,,,
acc,1778672597.0,16.0,-2.027344,0.128906,-9.839844,,,,,,,,,,
acc,1778672597.0,16.0,-1.992188,0.089844,-9.839844,,,,,,,,,,
acc,1778672597.0,16.0,-1.992188,0.128906,-9.839844,,,,,,,,,,
acc,1778672597.0,16.0,-1.953125,0.242188,-9.835938,,,,,,,,,,
acc,1778672597.0,16.0,-1.992188,0.164062,-9.800781,,,,,,,,,,
acc,1778672597.0,16.0,-2.027344,0.128906,-9.878906,,,,,,,,,,
acc,1778672597.0,16.0,-2.027344,0.128906,-9.839844,,,,,,,,,,
acc,1778672597.0,16.0,-2.027344,0.128906,-9.839844,,,,,,,,,,
acc,1778672597.0,16.0,-1.992188,0.203125,-9.875,,,,,,,,,,
acc,1778672597.0,16.0,-1.953125,0.128906,-9.796875,,,,,,,,,,
acc,1778672597.0,16.0,-1.992188,0.089844,-9.839844,,,,,,,,,,
acc,1778672597.0,16.0,-1.992188,0.089844,-9.796875,,,,,,,,,,
acc,1778672597.0,16.0,-1.953125,0.050781,-9.835938,,,,,,,,,,
acc,1778672597.0,16.0,-1.992188,0.089844,-9.839844,,,,,,,,,,
acc,1778672597.0,16.0,-1.953125,0.128906,-9.917969,,,,,,,,,,
acc,1778672597.0,16.0,-1.992188,0.128906,-9.839844,,,,,,,,,,
acc,1778672597.0,16.0,-1.992188,0.089844,-9.839844,,,,,,,,,,
acc,1778672597.0,16.0,-1.992188,0.050781,-9.835938,,,,,,,,,,
acc,1778672597.0,16.0,-1.992188,0.011719,-9.796875,,,,,,,,,,
acc,1778672597.0,16.0,-1.953125,-0.027344,-9.800781,,,,,,,,,,
acc,1778672597.0,16.0,-1.914062,0.050781,-9.757812,,,,,,,,,,
acc,1778672597.0,16.0,-1.953125,0.089844,-9.761719,,,,,,,,,,
acc,1778672597.0,16.0,-1.953125,0.050781,-9.800781,,,,,,,,,,
acc,1778672597.0,16.0,-2.027344,0.128906,-9.761719,,,,,,,,,,
acc,1778672597.0,16.0,-2.066406,0.203125,-9.878906,,,,,,,,,,
acc,1778672597.0,16.0,-2.027344,0.164062,-9.757812,,,,,,,,,,
acc,1778672597.0,16.0,-1.992188,0.164062,-9.800781,,,,,,,,,,
acc,1778672597.0,16.0,-1.992188,0.050781,-9.757812,,,,,,,,,,
acc,1778672597.0,16.0,-2.027344,0.011719,-9.761719,,,,,,,,,,
acc,1778672597.0,16.0,-1.992188,0.089844,-9.796875,,,,,,,,,,
acc,1778672597.0,16.0,-1.953125,0.089844,-9.761719,,,,,,,,,,
acc,1778672597.0,16.0,-1.953125,0.050781,-9.800781,,,,,,,,,,
acc,1778672597.0,16.0,-2.027344,0.089844,-9.796875,,,,,,,,,,
acc,1778672597.0,16.0,-2.027344,0.089844,-9.839844,,,,,,,,,,
acc,1778672597.0,16.0,-2.027344,0.164062,-9.757812,,,,,,,,,,
acc,1778672597.0,16.0,-1.992188,0.164062,-9.800781,,,,,,,,,,
acc,1778672597.0,16.0,-1.953125,0.164062,-9.800781,,,,,,,,,,
acc,1778672597.0,16.0,-2.027344,0.203125,-9.835938,,,,,,,,,,
acc,1778672597.0,16.0,-2.027344,0.203125,-9.835938,,,,,,,,,,
acc,1778672597.0,16.0,-2.066406,0.128906,-9.875,,,,,,,,,,
acc,1778672597.0,16.0,-2.027344,0.128906,-9.917969,,,,,,,,,,
acc,1778672597.0,16.0,-1.992188,0.203125,-9.914062,,,,,,,,,,
acc,1778672597.0,16.0,-2.027344,0.203125,-9.835938,,,,,,,,,,
acc,1778672597.0,16.0,-2.027344,0.28125,-9.914062,,,,,,,,,,
acc,1778672597.0,16.0,-2.066406,0.28125,-9.796875,,,,,,,,,,
acc,1778672597.0,16.0,-2.066406,0.28125,-9.878906,,,,,,,,,,
acc,1778672597.0,16.0,-2.066406,0.164062,-9.839844,,,,,,,,,,
acc,1778672597.0,16.0,-2.066406,0.203125,-9.839844,,,,,,,,,,
acc,1778672597.0,16.0,-2.027344,0.28125,-9.835938,,,,,,,,,,
acc,1778672597.0,16.0,-2.027344,0.242188,-9.875,,,,,,,,,,
acc,1778672597.0,16.0,-2.105469,0.242188,-9.839844,,,,,,,,,,
acc,1778672597.0,16.0,-2.105469,0.203125,-9.878906,,,,,,,,,,
acc,1778672597.0,16.0,-2.027344,0.050781,-9.835938,,,,,,,,,,
acc,1778672597.0,16.0,-1.992188,0.089844,-9.839844,,,,,,,,,,
acc,1778672597.0,16.0,-1.992188,0.164062,-9.800781,,,,,,,,,,
acc,1778672597.0,16.0,-2.066406,0.203125,-9.839844,,,,,,,,,,
acc,1778672597.0,16.0,-2.105469,0.203125,-9.878906,,,,,,,,,,
acc,1778672597.0,16.0,-2.066406,0.203125,-9.839844,,,,,,,,,,
acc,1778672597.0,16.0,-1.914062,0.164062,-9.800781,,,,,,,,,,
acc,1778672597.0,16.0,-1.953125,0.128906,-9.761719,,,,,,,,,,
acc,1778672597.0,16.0,-1.992188,0.128906,-9.796875,,,,,,,,,,
acc,1778672597.0,16.0,-2.066406,0.242188,-9.878906,,,,,,,,,,
acc,1778672597.0,16.0,-2.027344,0.355469,-9.839844,,,,,,,,,,
acc,1778672597.0,16.0,-1.992188,0.394531,-9.835938,,,,,,,,,,
acc,1778672597.0,16.0,-1.992188,0.355469,-9.839844,,,,,,,,,,
acc,1778672597.0,16.0,-2.027344,0.203125,-9.835938,,,,,,,,,,
acc,1778672597.0,16.0,-2.066406,0.164062,-9.726562,,,,,,,,,,
acc,1778672597.0,16.0,-2.066406,0.203125,-9.796875,,,,,,,,,,
acc,1778672597.0,16.0,-1.992188,0.242188,-9.800781,,,,,,,,,,
acc,1778672597.0,16.0,-2.027344,0.242188,-9.875,,,,,,,,,,
acc,1778672597.0,16.0,-2.066406,0.242188,-9.796875,,,,,,,,,,
acc,1778672597.0,16.0,-2.105469,0.28125,-9.878906,,,,,,,,,,
acc,1778672597.0,16.0,-2.066406,0.203125,-9.796875,,,,,,,,,,
acc,1778672597.0,16.0,-2.066406,0.203125,-9.839844,,,,,,,,,,
acc,1778672597.0,16.0,-2.066406,0.203125,-9.878906,,,,,,,,,,
acc,1778672597.0,16.0,-2.105469,0.203125,-9.796875,,,,,,,,,,
acc,1778672597.0,16.0,-2.105469,0.28125,-9.839844,,,,,,,,,,
acc,1778672597.0,16.0,-2.105469,0.242188,-9.796875,,,,,,,,,,
acc,1778672597.0,16.0,-2.066406,0.242188,-9.839844,,,,,,,,,,
acc,1778672597.0,16.0,-2.066406,0.28125,-9.878906,,,,,,,,,,
acc,1778672598.0,17.0,-2.066406,0.242188,-9.839844,,,,,,,,,,
acc,1778672598.0,17.0,-2.105469,0.203125,-9.796875,,,,,,,,,,
acc,1778672598.0,17.0,-2.105469,0.320312,-9.835938,,,,,,,,,,
acc,1778672598.0,17.0,-2.105469,0.355469,-9.800781,,,,,,,,,,
acc,1778672598.0,17.0,-2.183594,0.28125,-9.757812,,,,,,,,,,
acc,1778672598.0,17.0,-2.144531,0.355469,-9.839844,,,,,,,,,,
acc,1778672598.0,17.0,-2.183594,0.355469,-9.796875,,,,,,,,,,
acc,1778672598.0,17.0,-2.183594,0.355469,-9.761719,,,,,,,,,,
acc,1778672598.0,17.0,-2.183594,0.28125,-9.835938,,,,,,,,,,
acc,1778672598.0,17.0,-2.144531,0.355469,-9.878906,,,,,,,,,,
acc,1778672598.0,17.0,-2.105469,0.320312,-9.800781,,,,,,,,,,
acc,1778672598.0,17.0,-2.144531,0.242188,-9.835938,,,,,,,,,,
acc,1778672598.0,17.0,-2.105469,0.242188,-9.878906,,,,,,,,,,
acc,1778672598.0,17.0,-2.105469,0.242188,-9.839844,,,,,,,,,,
acc,1778672598.0,17.0,-2.144531,0.242188,-9.730469,,,,,,,,,,
acc,1778672598.0,17.0,-2.105469,0.203125,-9.878906,,,,,,,,,,
acc,1778672598.0,17.0,-2.066406,0.164062,-9.796875,,,,,,,,,,
acc,1778672598.0,17.0,-2.066406,0.089844,-9.757812,,,,,,,,,,
acc,1778672598.0,17.0,-2.066406,0.128906,-9.875,,,,,,,,,,
acc,1778672598.0,17.0,-2.105469,0.242188,-9.796875,,,,,,,,,,
acc,1778672598.0,17.0,-2.027344,0.320312,-9.761719,,,,,,,,,,
acc,1778672598.0,17.0,-2.027344,0.394531,-9.757812,,,,,,,,,,
acc,1778672598.0,17.0,-2.105469,0.511719,-9.757812,,,,,,,,,,
acc,1778672598.0,17.0,-2.066406,0.664062,-9.878906,,,,,,,,,,
acc,1778672598.0,17.0,-2.027344,0.511719,-9.796875,,,,,,,,,,
acc,1778672598.0,17.0,-2.066406,0.511719,-9.800781,,,,,,,,,,
acc,1778672598.0,17.0,-2.066406,0.550781,-9.957031,,,,,,,,,,
acc,1778672598.0,17.0,-2.027344,0.433594,-9.835938,,,,,,,,,,
acc,1778672598.0,17.0,-2.027344,0.472656,-9.796875,,,,,,,,,,
acc,1778672598.0,17.0,-2.105469,0.28125,-9.917969,,,,,,,,,,
acc,1778672598.0,17.0,-2.144531,0.242188,-9.835938,,,,,,,,,,
acc,1778672598.0,17.0,-2.105469,0.164062,-9.917969,,,,,,,,,,
acc,1778672598.0,17.0,-2.066406,0.203125,-9.878906,,,,,,,,,,
acc,1778672598.0,17.0,-2.066406,0.28125,-9.761719,,,,,,,,,,
acc,1778672598.0,17.0,-2.105469,0.320312,-9.953125,,,,,,,,,,
acc,1778672598.0,17.0,-2.105469,0.355469,-9.914062,,,,,,,,,,
acc,1778672598.0,17.0,-2.183594,0.433594,-9.757812,,,,,,,,,,
acc,1778672598.0,17.0,-2.183594,0.355469,-9.996094,,,,,,,,,,
acc,1778672598.0,17.0,-2.144531,0.28125,-9.875,,,,,,,,,,
acc,1778672598.0,17.0,-2.21875,0.320312,-9.878906,,,,,,,,,,
acc,1778672598.0,17.0,-2.183594,0.355469,-9.917969,,,,,,,,,,
acc,1778672598.0,17.0,-2.183594,0.433594,-9.875,,,,,,,,,,
acc,1778672598.0,17.0,-2.257812,0.472656,-9.839844,,,,,,,,,,
acc,1778672598.0,17.0,-2.144531,0.320312,-9.839844,,,,,,,,,,
acc,1778672598.0,17.0,-2.144531,0.355469,-9.917969,,,,,,,,,,
acc,1778672598.0,17.0,-2.21875,0.355469,-9.839844,,,,,,,,,,
acc,1778672598.0,17.0,-2.183594,0.242188,-9.800781,,,,,,,,,,
acc,1778672598.0,17.0,-2.257812,0.28125,-9.835938,,,,,,,,,,
acc,1778672598.0,17.0,-2.257812,0.355469,-9.917969,,,,,,,,,,
acc,1778672598.0,17.0,-2.105469,0.28125,-9.796875,,,,,,,,,,
acc,1778672598.0,17.0,-2.183594,0.242188,-9.800781,,,,,,,,,,
acc,1778672598.0,17.0,-2.144531,0.242188,-9.800781,,,,,,,,,,
acc,1778672598.0,17.0,-2.144531,0.242188,-9.730469,,,,,,,,,,
acc,1778672598.0,17.0,-2.21875,0.28125,-9.730469,,,,,,,,,,
acc,1778672598.0,17.0,-2.183594,0.355469,-9.839844,,,,,,,,,,
acc,1778672598.0,17.0,-2.105469,0.394531,-9.726562,,,,,,,,,,
acc,1778672598.0,17.0,-2.066406,0.320312,-9.875,,,,,,,,,,
acc,1778672598.0,17.0,-2.144531,0.320312,-9.6875,,,,,,,,,,
acc,1778672598.0,17.0,-2.183594,0.433594,-9.875,,,,,,,,,,
acc,1778672598.0,17.0,-2.105469,0.433594,-9.839844,,,,,,,,,,
acc,1778672598.0,17.0,-2.066406,0.511719,-9.730469,,,,,,,,,,
acc,1778672598.0,17.0,-2.066406,0.585938,-9.796875,,,,,,,,,,
acc,1778672598.0,17.0,-2.105469,0.550781,-9.726562,,,,,,,,,,
acc,1778672598.0,17.0,-2.183594,0.550781,-9.757812,,,,,,,,,,
acc,1778672598.0,17.0,-2.105469,0.585938,-9.796875,,,,,,,,,,
acc,1778672598.0,17.0,-2.066406,0.585938,-9.6875,,,,,,,,,,
acc,1778672598.0,17.0,-2.144531,0.585938,-9.730469,,,,,,,,,,
acc,1778672598.0,17.0,-2.105469,0.394531,-9.6875,,,,,,,,,,
acc,1778672598.0,17.0,-2.144531,0.355469,-9.6875,,,,,,,,,,
acc,1778672598.0,17.0,-2.257812,0.433594,-9.757812,,,,,,,,,,
acc,1778672598.0,17.0,-2.183594,0.550781,-9.835938,,,,,,,,,,
acc,1778672598.0,17.0,-2.066406,0.585938,-9.796875,,,,,,,,,,
acc,1778672598.0,17.0,-2.105469,0.585938,-9.761719,,,,,,,,,,
acc,1778672598.0,17.0,-2.105469,0.664062,-9.839844,,,,,,,,,,
acc,1778672598.0,17.0,-2.144531,0.550781,-9.757812,,,,,,,,,,
acc,1778672598.0,17.0,-2.21875,0.550781,-9.800781,,,,,,,,,,
acc,1778672598.0,17.0,-2.144531,0.625,-9.835938,,,,,,,,,,
acc,1778672598.0,17.0,-2.144531,0.511719,-9.726562,,,,,,,,,,
acc,1778672598.0,17.0,-2.066406,0.472656,-9.800781,,,,,,,,,,
acc,1778672598.0,17.0,-2.027344,0.472656,-9.761719,,,,,,,,,,
acc,1778672598.0,17.0,-2.144531,0.394531,-9.800781,,,,,,,,,,
acc,1778672598.0,17.0,-2.21875,0.355469,-9.878906,,,,,,,,,,
acc,1778672598.0,17.0,-2.144531,0.394531,-9.835938,,,,,,,,,,
acc,1778672598.0,17.0,-2.21875,0.394531,-9.875,,,,,,,,,,
acc,1778672598.0,17.0,-2.257812,0.433594,-9.914062,,,,,,,,,,
acc,1778672598.0,17.0,-2.183594,0.511719,-9.878906,,,,,,,,,,
acc,1778672598.0,17.0,-2.183594,0.433594,-9.800781,,,,,,,,,,
acc,1778672598.0,17.0,-2.144531,0.511719,-9.996094,,,,,,,,,,
acc,1778672598.0,17.0,-2.144531,0.511719,-9.878906,,,,,,,,,,
acc,1778672598.0,17.0,-2.21875,0.472656,-9.796875,,,,,,,,,,
acc,1778672598.0,17.0,-2.21875,0.511719,-9.917969,,,,,,,,,,
acc,1778672598.0,17.0,-2.144531,0.433594,-9.800781,,,,,,,,,,
acc,1778672598.0,17.0,-2.183594,0.511719,-9.796875,,,,,,,,,,
acc,1778672598.0,17.0,-2.144531,0.664062,-9.914062,,,,,,,,,,
acc,1778672598.0,17.0,-2.066406,0.742188,-9.917969,,,,,,,,,,
acc,1778672598.0,17.0,-2.066406,0.625,-9.878906,,,,,,,,,,
acc,1778672598.0,17.0,-2.144531,0.625,-9.835938,,,,,,,,,,
acc,1778672598.0,17.0,-2.183594,0.664062,-9.953125,,,,,,,,,,
acc,1778672598.0,17.0,-2.105469,0.664062,-9.796875,,,,,,,,,,
acc,1778672598.0,17.0,-2.144531,0.855469,-9.878906,,,,,,,,,,
acc,1778672598.0,17.0,-2.105469,0.816406,-9.800781,,,,,,,,,,
acc,1778672598.0,17.0,-2.144531,0.585938,-9.875,,,,,,,,,,
acc,1778672598.0,17.0,-2.105469,0.664062,-9.839844,,,,,,,,,,
acc,1778672598.0,17.0,-2.066406,0.703125,-9.839844,,,,,,,,,,
acc,1778672598.0,17.0,-2.105469,0.742188,-9.796875,,,,,,,,,,
acc,1778672598.0,17.0,-2.144531,0.585938,-9.953125,,,,,,,,,,
acc,1778672598.0,17.0,-2.144531,0.664062,-9.875,,,,,,,,,,
acc,1778672598.0,17.0,-2.105469,0.742188,-9.917969,,,,,,,,,,
acc,1778672598.0,17.0,-1.992188,0.742188,-9.953125,,,,,,,,,,
acc,1778672598.0,17.0,-1.992188,0.664062,-9.800781,,,,,,,,,,
acc,1778672598.0,17.0,-2.144531,0.664062,-9.914062,,,,,,,,,,
acc,1778672598.0,17.0,-2.21875,0.625,-9.953125,,,,,,,,,,
acc,1778672598.0,17.0,-2.144531,0.703125,-9.800781,,,,,,,,,,
acc,1778672598.0,17.0,-2.027344,0.742188,-9.992188,,,,,,,,,,
acc,1778672598.0,17.0,-1.953125,0.585938,-9.914062,,,,,,,,,,
acc,1778672598.0,17.0,-2.027344,0.816406,-9.761719,,,,,,,,,,
acc,1778672598.0,17.0,-2.105469,0.703125,-9.917969,,,,,,,,,,
acc,1778672598.0,17.0,-2.105469,0.433594,-9.839844,,,,,,,,,,
acc,1778672598.0,17.0,-1.992188,0.550781,-9.875,,,,,,,,,,
acc,1778672598.0,17.0,-1.992188,0.550781,-9.800781,,,,,,,,,,
acc,1778672598.0,17.0,-1.914062,0.433594,-9.648438,,,,,,,,,,
acc,1778672598.0,17.0,-1.992188,0.394531,-9.691406,,,,,,,,,,
acc,1778672598.0,17.0,-2.066406,0.355469,-9.875,,,,,,,,,,
acc,1778672598.0,17.0,-1.992188,0.472656,-9.839844,,,,,,,,,,
acc,1778672598.0,17.0,-1.992188,0.550781,-9.914062,,,,,,,,,,
acc,1778672598.0,17.0,-1.992188,0.625,-9.835938,,,,,,,,,,
acc,1778672598.0,17.0,-2.105469,0.664062,-9.917969,,,,,,,,,,
acc,1778672598.0,17.0,-2.183594,0.625,-9.914062,,,,,,,,,,
acc,1778672598.0,17.0,-2.21875,0.550781,-9.914062,,,,,,,,,,
acc,1778672599.0,18.0,-2.183594,0.894531,-9.914062,,,,,,,,,,
acc,1778672599.0,18.0,-2.183594,0.664062,-9.800781,,,,,,,,,,
acc,1778672599.0,18.0,-2.21875,0.625,-9.730469,,,,,,,,,,
acc,1778672599.0,18.0,-2.183594,1.007812,-9.730469,,,,,,,,,,
acc,1778672599.0,18.0,-2.105469,0.855469,-9.757812,,,,,,,,,,
acc,1778672599.0,18.0,-2.105469,0.664062,-9.726562,,,,,,,,,,
acc,1778672599.0,18.0,-2.066406,0.472656,-9.992188,,,,,,,,,,
acc,1778672599.0,18.0,-2.105469,0.550781,-9.796875,,,,,,,,,,
acc,1778672599.0,18.0,-2.105469,0.777344,-9.878906,,,,,,,,,,
acc,1778672599.0,18.0,-2.066406,0.625,-9.839844,,,,,,,,,,
acc,1778672599.0,18.0,-2.027344,0.472656,-9.726562,,,,,,,,,,
acc,1778672599.0,18.0,-2.066406,0.625,-9.726562,,,,,,,,,,
acc,1778672599.0,18.0,-2.027344,0.777344,-9.730469,,,,,,,,,,
acc,1778672599.0,18.0,-1.914062,0.816406,-9.6875,,,,,,,,,,
acc,1778672599.0,18.0,-2.066406,0.703125,-9.761719,,,,,,,,,,
acc,1778672599.0,18.0,-2.066406,0.664062,-9.917969,,,,,,,,,,
acc,1778672599.0,18.0,-1.953125,0.855469,-9.726562,,,,,,,,,,
acc,1778672599.0,18.0,-1.953125,0.664062,-9.730469,,,,,,,,,,
acc,1778672599.0,18.0,-1.914062,0.816406,-9.878906,,,,,,,,,,
acc,1778672599.0,18.0,-1.953125,0.777344,-9.648438,,,,,,,,,,
acc,1778672599.0,18.0,-2.027344,0.742188,-9.800781,,,,,,,,,,
acc,1778672599.0,18.0,-1.914062,0.894531,-9.835938,,,,,,,,,,
acc,1778672599.0,18.0,-1.953125,0.816406,-9.652344,,,,,,,,,,
acc,1778672599.0,18.0,-1.953125,0.777344,-9.914062,,,,,,,,,,
acc,1778672599.0,18.0,-1.953125,0.894531,-9.730469,,,,,,,,,,
acc,1778672599.0,18.0,-1.953125,1.046875,-9.839844,,,,,,,,,,
acc,1778672599.0,18.0,-1.914062,1.085938,-9.730469,,,,,,,,,,
acc,1778672599.0,18.0,-1.875,1.125,-9.875,,,,,,,,,,
acc,1778672599.0,18.0,-1.953125,0.96875,-9.757812,,,,,,,,,,
acc,1778672599.0,18.0,-2.105469,1.046875,-9.730469,,,,,,,,,,
acc,1778672599.0,18.0,-1.953125,1.046875,-9.917969,,,,,,,,,,
acc,1778672599.0,18.0,-1.992188,0.894531,-9.730469,,,,,,,,,,
acc,1778672599.0,18.0,-1.992188,0.96875,-9.953125,,,,,,,,,,
acc,1778672599.0,18.0,-1.992188,0.894531,-9.800781,,,,,,,,,,
acc,1778672599.0,18.0,-1.992188,0.664062,-9.800781,,,,,,,,,,
acc,1778672599.0,18.0,-1.914062,0.777344,-9.875,,,,,,,,,,
acc,1778672599.0,18.0,-1.992188,0.703125,-9.800781,,,,,,,,,,
acc,1778672599.0,18.0,-2.105469,0.625,-9.878906,,,,,,,,,,
acc,1778672599.0,18.0,-2.183594,0.894531,-9.757812,,,,,,,,,,
acc,1778672599.0,18.0,-2.066406,0.855469,-9.835938,,,,,,,,,,
acc,1778672599.0,18.0,-1.914062,1.007812,-9.914062,,,,,,,,,,
acc,1778672599.0,18.0,-2.027344,0.855469,-9.796875,,,,,,,,,,
acc,1778672599.0,18.0,-2.144531,0.933594,-9.992188,,,,,,,,,,
acc,1778672599.0,18.0,-2.105469,1.277344,-9.839844,,,,,,,,,,
acc,1778672599.0,18.0,-2.066406,1.277344,-9.652344,,,,,,,,,,
acc,1778672599.0,18.0,-1.992188,1.238281,-9.953125,,,,,,,,,,
acc,1778672599.0,18.0,-2.066406,1.277344,-9.726562,,,,,,,,,,
acc,1778672599.0,18.0,-2.144531,1.390625,-9.917969,,,,,,,,,,
acc,1778672599.0,18.0,-2.027344,1.007812,-9.914062,,,,,,,,,,
acc,1778672599.0,18.0,-1.914062,0.742188,-9.914062,,,,,,,,,,
acc,1778672599.0,18.0,-2.105469,0.703125,-9.726562,,,,,,,,,,
acc,1778672599.0,18.0,-2.105469,0.472656,-9.992188,,,,,,,,,,
acc,1778672599.0,18.0,-1.992188,0.703125,-9.835938,,,,,,,,,,
acc,1778672599.0,18.0,-1.914062,0.855469,-9.957031,,,,,,,,,,
acc,1778672599.0,18.0,-1.914062,0.933594,-9.914062,,,,,,,,,,
acc,1778672599.0,18.0,-2.066406,1.125,-9.957031,,,,,,,,,,
acc,1778672599.0,18.0,-2.144531,1.199219,-9.957031,,,,,,,,,,
acc,1778672599.0,18.0,-2.105469,0.96875,-9.839844,,,,,,,,,,
acc,1778672599.0,18.0,-2.027344,0.664062,-9.914062,,,,,,,,,,
acc,1778672599.0,18.0,-1.953125,0.703125,-9.875,,,,,,,,,,
acc,1778672599.0,18.0,-2.066406,0.816406,-9.757812,,,,,,,,,,
acc,1778672599.0,18.0,-2.066406,0.933594,-9.996094,,,,,,,,,,
acc,1778672599.0,18.0,-1.953125,1.085938,-9.953125,,,,,,,,,,
acc,1778672599.0,18.0,-2.027344,1.007812,-9.875,,,,,,,,,,
acc,1778672599.0,18.0,-2.105469,0.933594,-10.035156,,,,,,,,,,
acc,1778672599.0,18.0,-2.144531,1.046875,-9.6875,,,,,,,,,,
acc,1778672599.0,18.0,-2.105469,1.160156,-9.839844,,,,,,,,,,
acc,1778672599.0,18.0,-1.914062,0.933594,-9.757812,,,,,,,,,,
acc,1778672599.0,18.0,-1.835938,0.96875,-9.835938,,,,,,,,,,
acc,1778672599.0,18.0,-1.875,1.046875,-9.761719,,,,,,,,,,
acc,1778672599.0,18.0,-1.953125,1.046875,-9.761719,,,,,,,,,,
acc,1778672599.0,18.0,-2.027344,1.007812,-9.730469,,,,,,,,,,
acc,1778672599.0,18.0,-1.953125,1.046875,-9.761719,,,,,,,,,,
acc,1778672599.0,18.0,-1.992188,1.007812,-9.835938,,,,,,,,,,
acc,1778672599.0,18.0,-2.105469,1.238281,-9.878906,,,,,,,,,,
acc,1778672599.0,18.0,-2.105469,1.125,-9.761719,,,,,,,,,,
acc,1778672599.0,18.0,-2.027344,1.007812,-9.730469,,,,,,,,,,
acc,1778672599.0,18.0,-1.992188,1.007812,-9.609375,,,,,,,,,,
acc,1778672599.0,18.0,-1.914062,1.160156,-9.691406,,,,,,,,,,
acc,1778672599.0,18.0,-1.953125,1.125,-9.609375,,,,,,,,,,
acc,1778672599.0,18.0,-1.953125,1.160156,-9.835938,,,,,,,,,,
acc,1778672599.0,18.0,-1.914062,1.199219,-9.796875,,,,,,,,,,
acc,1778672599.0,18.0,-1.835938,1.238281,-9.835938,,,,,,,,,,
acc,1778672599.0,18.0,-1.875,1.351562,-9.835938,,,,,,,,,,
acc,1778672599.0,18.0,-1.992188,1.160156,-9.835938,,,,,,,,,,
acc,1778672599.0,18.0,-2.066406,1.199219,-9.800781,,,,,,,,,,
acc,1778672599.0,18.0,-2.027344,1.316406,-9.839844,,,,,,,,,,
acc,1778672599.0,18.0,-1.875,1.390625,-9.6875,,,,,,,,,,
acc,1778672599.0,18.0,-1.953125,1.316406,-9.796875,,,,,,,,,,
acc,1778672599.0,18.0,-1.914062,1.390625,-9.839844,,,,,,,,,,
acc,1778672599.0,18.0,-1.953125,1.238281,-9.875,,,,,,,,,,
acc,1778672599.0,18.0,-2.066406,1.007812,-9.6875,,,,,,,,,,
acc,1778672599.0,18.0,-2.027344,1.085938,-10.074219,,,,,,,,,,
acc,1778672599.0,18.0,-1.875,1.046875,-9.796875,,,,,,,,,,
acc,1778672599.0,18.0,-1.800781,1.199219,-9.761719,,,,,,,,,,
acc,1778672599.0,18.0,-1.875,1.429688,-9.917969,,,,,,,,,,
acc,1778672599.0,18.0,-1.875,1.351562,-9.875,,,,,,,,,,
acc,1778672599.0,18.0,-1.835938,1.429688,-9.761719,,,,,,,,,,
acc,1778672599.0,18.0,-1.953125,1.507812,-9.875,,,,,,,,,,
acc,1778672599.0,18.0,-1.992188,1.46875,-9.953125,,,,,,,,,,
acc,1778672599.0,18.0,-2.027344,1.46875,-9.800781,,,,,,,,,,
acc,1778672599.0,18.0,-1.761719,1.429688,-9.953125,,,,,,,,,,
acc,1778672599.0,18.0,-1.722656,1.351562,-9.726562,,,,,,,,,,
acc,1778672599.0,18.0,-1.914062,1.390625,-9.957031,,,,,,,,,,
acc,1778672599.0,18.0,-1.992188,1.277344,-9.914062,,,,,,,,,,
acc,1778672599.0,18.0,-2.105469,1.125,-9.6875,,,,,,,,,,
acc,1778672599.0,18.0,-1.914062,1.085938,-10.148438,,,,,,,,,,
acc,1778672599.0,18.0,-1.722656,1.007812,-9.6875,,,,,,,,,,
acc,1778672599.0,18.0,-1.835938,0.933594,-9.953125,,,,,,,,,,
acc,1778672599.0,18.0,-1.875,0.894531,-10.03125,,,,,,,,,,
acc,1778672599.0,18.0,-1.914062,0.933594,-9.875,,,,,,,,,,
acc,1778672599.0,18.0,-1.875,1.125,-10.21875,,,,,,,,,,
acc,1778672599.0,18.0,-1.992188,1.277344,-9.800781,,,,,,,,,,
acc,1778672599.0,18.0,-1.992188,1.351562,-9.953125,,,,,,,,,,
acc,1778672599.0,18.0,-1.800781,1.390625,-9.917969,,,,,,,,,,
acc,1778672599.0,18.0,-1.722656,1.390625,-9.730469,,,,,,,,,,
acc,1778672599.0,18.0,-1.835938,1.429688,-9.839844,,,,,,,,,,
acc,1778672599.0,18.0,-1.875,1.390625,-9.796875,,,,,,,,,,
acc,1778672599.0,18.0,-1.953125,1.238281,-9.757812,,,,,,,,,,
acc,1778672599.0,18.0,-1.875,1.160156,-10.074219,,,,,,,,,,
acc,1778672599.0,18.0,-1.644531,1.238281,-9.953125,,,,,,,,,,
acc,1778672599.0,18.0,-1.875,1.351562,-9.875,,,,,,,,,,
acc,1778672599.0,18.0,-2.144531,1.429688,-10.070312,,,,,,,,,,
acc,1778672599.0,18.0,-2.144531,1.507812,-9.800781,,,,,,,,,,
acc,1778672599.0,18.0,-2.066406,1.542969,-9.839844,,,,,,,,,,
acc,1778672599.0,18.0,-1.875,1.429688,-9.796875,,,,,,,,,,
acc,1778672599.0,18.0,-1.953125,1.390625,-9.6875,,,,,,,,,,
acc,1778672599.0,18.0,-1.835938,1.238281,-9.835938,,,,,,,,,,
acc,1778672600.0,19.0,-1.800781,1.199219,-9.917969,,,,,,,,,,
acc,1778672600.0,19.0,-1.835938,1.085938,-9.914062,,,,,,,,,,
acc,1778672600.0,19.0,-1.914062,1.160156,-9.835938,,,,,,,,,,
acc,1778672600.0,19.0,-1.835938,1.429688,-9.796875,,,,,,,,,,
acc,1778672600.0,19.0,-1.761719,1.46875,-9.652344,,,,,,,,,,
acc,1778672600.0,19.0,-1.761719,1.621094,-9.761719,,,,,,,,,,
acc,1778672600.0,19.0,-1.914062,1.8125,-9.953125,,,,,,,,,,
acc,1778672600.0,19.0,-2.027344,1.699219,-9.839844,,,,,,,,,,
acc,1778672600.0,19.0,-1.953125,1.46875,-9.757812,,,,,,,,,,
acc,1778672600.0,19.0,-1.914062,1.429688,-9.613281,,,,,,,,,,
acc,1778672600.0,19.0,-1.914062,1.507812,-9.835938,,,,,,,,,,
acc,1778672600.0,19.0,-1.835938,1.8125,-9.609375,,,,,,,,,,
acc,1778672600.0,19.0,-1.835938,1.890625,-9.652344,,,,,,,,,,
acc,1778672600.0,19.0,-1.800781,1.929688,-9.796875,,,,,,,,,,
acc,1778672600.0,19.0,-1.875,2.042969,-9.609375,,,,,,,,,,
acc,1778672600.0,19.0,-1.914062,1.964844,-10.109375,,,,,,,,,,
acc,1778672600.0,19.0,-1.875,1.738281,-9.691406,,,,,,,,,,
acc,1778672600.0,19.0,-2.066406,1.507812,-9.796875,,,,,,,,,,
acc,1778672600.0,19.0,-2.105469,1.582031,-10.152344,,,,,,,,,,
acc,1778672600.0,19.0,-1.953125,1.621094,-9.492188,,,,,,,,,,
acc,1778672600.0,19.0,-1.722656,2.042969,-9.996094,,,,,,,,,,
acc,1778672600.0,19.0,-1.722656,2.003906,-9.496094,,,,,,,,,,
acc,1778672600.0,19.0,-1.875,1.964844,-9.835938,,,,,,,,,,
acc,1778672600.0,19.0,-1.914062,1.851562,-9.800781,,,,,,,,,,
acc,1778672600.0,19.0,-1.605469,1.8125,-9.761719,,,,,,,,,,
acc,1778672600.0,19.0,-1.644531,1.890625,-9.726562,,,,,,,,,,
acc,1778672600.0,19.0,-1.683594,1.660156,-9.757812,,,,,,,,,,
acc,1778672600.0,19.0,-1.835938,1.621094,-9.835938,,,,,,,,,,
acc,1778672600.0,19.0,-1.761719,1.542969,-9.996094,,,,,,,,,,
acc,1778672600.0,19.0,-1.683594,1.542969,-9.914062,,,,,,,,,,
acc,1778672600.0,19.0,-1.835938,1.582031,-9.835938,,,,,,,,,,
acc,1778672600.0,19.0,-1.835938,1.46875,-10.183594,,,,,,,,,,
acc,1778672600.0,19.0,-1.644531,1.507812,-9.835938,,,,,,,,,,
acc,1778672600.0,19.0,-1.605469,1.507812,-9.957031,,,,,,,,,,
acc,1778672600.0,19.0,-1.683594,1.429688,-9.917969,,,,,,,,,,
acc,1778672600.0,19.0,-1.835938,1.429688,-9.996094,,,,,,,,,,
acc,1778672600.0,19.0,-1.761719,1.429688,-9.875,,,,,,,,,,
acc,1778672600.0,19.0,-1.644531,1.316406,-9.796875,,,,,,,,,,
acc,1778672600.0,19.0,-1.570312,1.238281,-9.957031,,,,,,,,,,
acc,1778672600.0,19.0,-1.644531,1.277344,-9.800781,,,,,,,,,,
acc,1778672600.0,19.0,-1.800781,1.316406,-10.070312,,,,,,,,,,
acc,1778672600.0,19.0,-1.800781,1.429688,-9.917969,,,,,,,,,,
acc,1778672600.0,19.0,-1.683594,1.390625,-10.070312,,,,,,,,,,
acc,1778672600.0,19.0,-1.683594,1.429688,-9.957031,,,,,,,,,,
acc,1778672600.0,19.0,-1.683594,1.507812,-9.835938,,,,,,,,,,
acc,1778672600.0,19.0,-1.761719,1.46875,-10.152344,,,,,,,,,,
acc,1778672600.0,19.0,-1.683594,1.699219,-9.796875,,,,,,,,,,
acc,1778672600.0,19.0,-1.683594,1.582031,-10.074219,,,,,,,,,,
acc,1778672600.0,19.0,-1.605469,1.46875,-9.878906,,,,,,,,,,
acc,1778672600.0,19.0,-1.605469,1.429688,-9.835938,,,,,,,,,,
acc,1778672600.0,19.0,-1.570312,1.429688,-10.21875,,,,,,,,,,
acc,1778672600.0,19.0,-1.53125,1.46875,-9.53125,,,,,,,,,,
acc,1778672600.0,19.0,-1.605469,1.542969,-10.035156,,,,,,,,,,
acc,1778672600.0,19.0,-1.53125,1.582031,-9.914062,,,,,,,,,,
acc,1778672600.0,19.0,-1.414062,1.621094,-9.691406,,,,,,,,,,
acc,1778672600.0,19.0,-1.492188,1.621094,-9.835938,,,,,,,,,,
acc,1778672600.0,19.0,-1.453125,1.582031,-9.757812,,,,,,,,,,
acc,1778672600.0,19.0,-1.53125,1.738281,-9.835938,,,,,,,,,,
acc,1778672600.0,19.0,-1.53125,1.621094,-9.875,,,,,,,,,,
acc,1778672600.0,19.0,-1.414062,1.621094,-9.914062,,,,,,,,,,
acc,1778672600.0,19.0,-1.492188,1.507812,-10.03125,,,,,,,,,,
acc,1778672600.0,19.0,-1.683594,1.429688,-10.070312,,,,,,,,,,
acc,1778672600.0,19.0,-1.761719,1.390625,-10.074219,,,,,,,,,,
acc,1778672600.0,19.0,-1.761719,1.507812,-9.917969,,,,,,,,,,
acc,1778672600.0,19.0,-1.644531,1.621094,-9.648438,,,,,,,,,,
acc,1778672600.0,19.0,-1.53125,1.699219,-9.761719,,,,,,,,,,
acc,1778672600.0,19.0,-1.453125,2.082031,-9.574219,,,,,,,,,,
acc,1778672600.0,19.0,-1.644531,2.082031,-9.648438,,,,,,,,,,
acc,1778672600.0,19.0,-1.722656,2.082031,-9.796875,,,,,,,,,,
acc,1778672600.0,19.0,-1.644531,2.082031,-9.730469,,,,,,,,,,
acc,1778672600.0,19.0,-1.53125,1.738281,-9.800781,,,,,,,,,,
acc,1778672600.0,19.0,-1.414062,1.621094,-9.609375,,,,,,,,,,
acc,1778672600.0,19.0,-1.414062,1.316406,-9.570312,,,,,,,,,,
acc,1778672600.0,19.0,-1.53125,1.316406,-9.726562,,,,,,,,,,
acc,1778672600.0,19.0,-1.492188,1.582031,-9.757812,,,,,,,,,,
acc,1778672600.0,19.0,-1.492188,1.738281,-9.835938,,,,,,,,,,
acc,1778672600.0,19.0,-1.53125,2.121094,-9.648438,,,,,,,,,,
acc,1778672600.0,19.0,-1.761719,2.273438,-9.875,,,,,,,,,,
acc,1778672600.0,19.0,-1.761719,2.003906,-9.761719,,,,,,,,,,
acc,1778672600.0,19.0,-1.722656,1.851562,-9.652344,,,,,,,,,,
acc,1778672600.0,19.0,-1.605469,1.738281,-9.917969,,,,,,,,,,
acc,1778672600.0,19.0,-1.53125,1.621094,-9.53125,,,,,,,,,,
acc,1778672600.0,19.0,-1.644531,1.699219,-9.726562,,,,,,,,,,
acc,1778672600.0,19.0,-1.644531,1.542969,-9.730469,,,,,,,,,,
acc,1778672600.0,19.0,-1.570312,1.582031,-9.761719,,,,,,,,,,
acc,1778672600.0,19.0,-1.683594,1.773438,-9.957031,,,,,,,,,,
acc,1778672600.0,19.0,-1.800781,1.582031,-9.574219,,,,,,,,,,
acc,1778672600.0,19.0,-1.683594,1.46875,-9.835938,,,,,,,,,,
acc,1778672600.0,19.0,-1.453125,1.46875,-9.53125,,,,,,,,,,
acc,1778672600.0,19.0,-1.453125,1.429688,-9.6875,,,,,,,,,,
acc,1778672600.0,19.0,-1.570312,1.429688,-9.914062,,,,,,,,,,
acc,1778672600.0,19.0,-1.722656,1.351562,-9.613281,,,,,,,,,,
acc,1778672600.0,19.0,-1.644531,1.351562,-9.875,,,,,,,,,,
acc,1778672600.0,19.0,-1.378906,1.316406,-9.757812,,,,,,,,,,
acc,1778672600.0,19.0,-1.414062,1.429688,-9.6875,,,,,,,,,,
acc,1778672600.0,19.0,-1.683594,1.46875,-9.757812,,,,,,,,,,
acc,1778672600.0,19.0,-1.644531,1.46875,-9.914062,,,,,,,,,,
acc,1778672600.0,19.0,-1.53125,1.46875,-9.730469,,,,,,,,,,
acc,1778672600.0,19.0,-1.605469,1.542969,-9.839844,,,,,,,,,,
acc,1778672600.0,19.0,-1.570312,1.851562,-10.035156,,,,,,,,,,
acc,1778672600.0,19.0,-1.605469,2.042969,-9.652344,,,,,,,,,,
acc,1778672600.0,19.0,-1.605469,1.851562,-9.996094,,,,,,,,,,
acc,1778672600.0,19.0,-1.492188,1.542969,-9.730469,,,,,,,,,,
acc,1778672600.0,19.0,-1.683594,1.773438,-9.839844,,,,,,,,,,
acc,1778672600.0,19.0,-1.605469,1.507812,-9.996094,,,,,,,,,,
acc,1778672600.0,19.0,-1.378906,1.46875,-9.761719,,,,,,,,,,
acc,1778672600.0,19.0,-1.453125,1.46875,-9.953125,,,,,,,,,,
acc,1778672600.0,19.0,-1.53125,1.390625,-10.070312,,,,,,,,,,
acc,1778672600.0,19.0,-1.453125,1.390625,-10.035156,,,,,,,,,,
acc,1778672600.0,19.0,-1.378906,1.46875,-9.957031,,,,,,,,,,
acc,1778672600.0,19.0,-1.492188,1.542969,-10.074219,,,,,,,,,,
acc,1778672600.0,19.0,-1.722656,1.851562,-9.996094,,,,,,,,,,
acc,1778672600.0,19.0,-1.644531,2.003906,-9.953125,,,,,,,,,,
acc,1778672600.0,19.0,-1.644531,1.660156,-9.800781,,,,,,,,,,
acc,1778672600.0,19.0,-1.570312,1.542969,-9.878906,,,,,,,,,,
acc,1778672600.0,19.0,-1.414062,1.390625,-9.796875,,,,,,,,,,
acc,1778672600.0,19.0,-1.453125,1.316406,-9.878906,,,,,,,,,,
acc,1778672600.0,19.0,-1.605469,1.542969,-9.878906,,,,,,,,,,
acc,1778672600.0,19.0,-1.605469,1.738281,-9.957031,,,,,,,,,,
acc,1778672600.0,19.0,-1.53125,2.234375,-9.878906,,,,,,,,,,
acc,1778672600.0,19.0,-1.570312,2.15625,-9.835938,,,,,,,,,,
acc,1778672600.0,19.0,-1.53125,1.929688,-9.996094,,,,,,,,,,
acc,1778672600.0,19.0,-1.53125,1.929688,-9.878906,,,,,,,,,,
acc,1778672600.0,19.0,-1.570312,1.851562,-9.839844,,,,,,,,,,
acc,1778672600.0,19.0,-1.644531,1.738281,-10.109375,,,,,,,,,,
acc,1778672600.0,19.0,-1.644531,1.46875,-10.03125,,,,,,,,,,
acc,1778672600.0,19.0,-1.492188,1.507812,-9.757812,,,,,,,,,,
acc,1778672600.0,19.0,-1.53125,1.890625,-10.070312,,,,,,,,,,
acc,1778672601.0,20.0,-1.570312,2.195312,-9.839844,,,,,,,,,,
acc,1778672601.0,20.0,-1.644531,2.234375,-9.839844,,,,,,,,,,
acc,1778672601.0,20.0,-1.570312,2.195312,-9.6875,,,,,,,,,,
acc,1778672601.0,20.0,-1.53125,2.121094,-9.835938,,,,,,,,,,
acc,1778672601.0,20.0,-1.492188,2.386719,-9.648438,,,,,,,,,,
acc,1778672601.0,20.0,-1.492188,2.386719,-9.800781,,,,,,,,,,
acc,1778672601.0,20.0,-1.492188,2.121094,-9.875,,,,,,,,,,
acc,1778672601.0,20.0,-1.570312,2.042969,-9.570312,,,,,,,,,,
acc,1778672601.0,20.0,-1.570312,2.003906,-9.917969,,,,,,,,,,
acc,1778672601.0,20.0,-1.53125,2.042969,-9.800781,,,,,,,,,,
acc,1778672601.0,20.0,-1.644531,2.386719,-9.574219,,,,,,,,,,
acc,1778672601.0,20.0,-1.570312,2.425781,-9.835938,,,,,,,,,,
acc,1778672601.0,20.0,-1.453125,2.3125,-9.914062,,,,,,,,,,
acc,1778672601.0,20.0,-1.761719,2.3125,-9.726562,,,,,,,,,,
acc,1778672601.0,20.0,-1.835938,2.15625,-10.339844,,,,,,,,,,
acc,1778672601.0,20.0,-1.644531,2.082031,-9.757812,,,,,,,,,,
acc,1778672601.0,20.0,-1.605469,1.890625,-9.953125,,,,,,,,,,
acc,1778672601.0,20.0,-1.570312,2.042969,-9.878906,,,,,,,,,,
acc,1778672601.0,20.0,-1.605469,2.3125,-9.570312,,,,,,,,,,
acc,1778672601.0,20.0,-1.605469,2.503906,-9.957031,,,,,,,,,,
acc,1778672601.0,20.0,-1.378906,2.3125,-9.839844,,,,,,,,,,
acc,1778672601.0,20.0,-1.492188,2.273438,-9.652344,,,,,,,,,,
acc,1778672601.0,20.0,-1.722656,2.386719,-9.652344,,,,,,,,,,
acc,1778672601.0,20.0,-1.644531,1.851562,-9.757812,,,,,,,,,,
acc,1778672601.0,20.0,-1.378906,1.8125,-9.761719,,,,,,,,,,
acc,1778672601.0,20.0,-1.339844,1.738281,-9.6875,,,,,,,,,,
acc,1778672601.0,20.0,-1.492188,1.507812,-9.730469,,,,,,,,,,
acc,1778672601.0,20.0,-1.835938,1.699219,-9.761719,,,,,,,,,,
acc,1778672601.0,20.0,-1.914062,1.738281,-10.148438,,,,,,,,,,
acc,1778672601.0,20.0,-1.605469,1.738281,-9.957031,,,,,,,,,,
acc,1778672601.0,20.0,-1.53125,2.042969,-10.21875,,,,,,,,,,
acc,1778672601.0,20.0,-1.722656,1.8125,-10.070312,,,,,,,,,,
acc,1778672601.0,20.0,-1.835938,1.699219,-9.726562,,,,,,,,,,
acc,1778672601.0,20.0,-1.722656,2.347656,-10.035156,,,,,,,,,,
acc,1778672601.0,20.0,-1.453125,2.425781,-9.761719,,,,,,,,,,
acc,1778672601.0,20.0,-1.453125,2.464844,-9.691406,,,,,,,,,,
acc,1778672601.0,20.0,-1.605469,2.121094,-9.957031,,,,,,,,,,
acc,1778672601.0,20.0,-1.644531,2.121094,-9.691406,,,,,,,,,,
acc,1778672601.0,20.0,-1.761719,2.15625,-9.992188,,,,,,,,,,
acc,1778672601.0,20.0,-1.722656,2.3125,-9.957031,,,,,,,,,,
acc,1778672601.0,20.0,-1.570312,2.15625,-9.875,,,,,,,,,,
acc,1778672601.0,20.0,-1.53125,1.964844,-9.757812,,,,,,,,,,
acc,1778672601.0,20.0,-1.453125,2.195312,-9.800781,,,,,,,,,,
acc,1778672601.0,20.0,-1.605469,1.964844,-9.570312,,,,,,,,,,
acc,1778672601.0,20.0,-1.644531,2.042969,-9.914062,,,,,,,,,,
acc,1778672601.0,20.0,-1.492188,1.929688,-10.035156,,,,,,,,,,
acc,1778672601.0,20.0,-1.492188,2.042969,-9.835938,,,,,,,,,,
acc,1778672601.0,20.0,-1.644531,2.386719,-9.875,,,,,,,,,,
acc,1778672601.0,20.0,-1.605469,2.347656,-10.035156,,,,,,,,,,
acc,1778672601.0,20.0,-1.644531,2.386719,-9.691406,,,,,,,,,,
acc,1778672601.0,20.0,-1.644531,2.503906,-10.109375,,,,,,,,,,
acc,1778672601.0,20.0,-1.414062,2.195312,-9.914062,,,,,,,,,,
acc,1778672601.0,20.0,-1.492188,2.808594,-9.570312,,,,,,,,,,
acc,1778672601.0,20.0,-1.492188,2.695312,-9.992188,,,,,,,,,,
acc,1778672601.0,20.0,-1.453125,2.578125,-9.570312,,,,,,,,,,
acc,1778672601.0,20.0,-1.492188,2.730469,-9.992188,,,,,,,,,,
acc,1778672601.0,20.0,-1.644531,2.539062,-9.796875,,,,,,,,,,
acc,1778672601.0,20.0,-1.644531,2.234375,-9.761719,,,,,,,,,,
acc,1778672601.0,20.0,-1.53125,2.386719,-9.953125,,,,,,,,,,
acc,1778672601.0,20.0,-1.570312,2.539062,-9.347656,,,,,,,,,,
acc,1778672601.0,20.0,-1.492188,2.347656,-9.757812,,,,,,,,,,
acc,1778672601.0,20.0,-1.300781,2.503906,-9.875,,,,,,,,,,
acc,1778672601.0,20.0,-1.339844,2.539062,-9.648438,,,,,,,,,,
acc,1778672601.0,20.0,-1.300781,2.3125,-10.109375,,,,,,,,,,
acc,1778672601.0,20.0,-1.222656,2.273438,-9.875,,,,,,,,,,
acc,1778672601.0,20.0,-1.492188,2.464844,-10.03125,,,,,,,,,,
acc,1778672601.0,20.0,-1.722656,2.234375,-10.21875,,,,,,,,,,
acc,1778672601.0,20.0,-1.53125,2.15625,-9.878906,,,,,,,,,,
acc,1778672601.0,20.0,-1.570312,2.121094,-9.796875,,,,,,,,,,
acc,1778672601.0,20.0,-1.605469,1.929688,-9.875,,,,,,,,,,
acc,1778672601.0,20.0,-1.414062,2.15625,-9.796875,,,,,,,,,,
acc,1778672601.0,20.0,-1.453125,2.082031,-9.757812,,,,,,,,,,
acc,1778672601.0,20.0,-1.605469,1.929688,-9.691406,,,,,,,,,,
acc,1778672601.0,20.0,-1.414062,2.15625,-10.070312,,,,,,,,,,
acc,1778672601.0,20.0,-1.222656,2.195312,-9.535156,,,,,,,,,,
acc,1778672601.0,20.0,-1.339844,2.121094,-9.839844,,,,,,,,,,
acc,1778672601.0,20.0,-1.261719,2.195312,-9.957031,,,,,,,,,,
acc,1778672601.0,20.0,-1.414062,2.425781,-9.652344,,,,,,,,,,
acc,1778672601.0,20.0,-1.53125,2.464844,-10.074219,,,,,,,,,,
acc,1778672601.0,20.0,-1.378906,2.503906,-9.917969,,,,,,,,,,
acc,1778672601.0,20.0,-1.492188,2.503906,-9.992188,,,,,,,,,,
acc,1778672601.0,20.0,-1.53125,2.617188,-9.496094,,,,,,,,,,
acc,1778672601.0,20.0,-1.492188,2.425781,-10.152344,,,,,,,,,,
acc,1778672601.0,20.0,-1.414062,2.15625,-9.613281,,,,,,,,,,
acc,1778672601.0,20.0,-1.414062,2.273438,-9.6875,,,,,,,,,,
acc,1778672601.0,20.0,-1.492188,2.347656,-9.757812,,,,,,,,,,
acc,1778672601.0,20.0,-1.261719,2.386719,-9.726562,,,,,,,,,,
acc,1778672601.0,20.0,-1.261719,2.539062,-9.691406,,,,,,,,,,
acc,1778672601.0,20.0,-1.414062,2.617188,-9.878906,,,,,,,,,,
acc,1778672601.0,20.0,-1.453125,2.578125,-9.957031,,,,,,,,,,
acc,1778672601.0,20.0,-1.339844,2.464844,-9.761719,,,,,,,,,,
acc,1778672601.0,20.0,-1.109375,2.425781,-9.878906,,,,,,,,,,
acc,1778672601.0,20.0,-1.222656,2.578125,-9.757812,,,,,,,,,,
acc,1778672601.0,20.0,-1.453125,2.617188,-9.726562,,,,,,,,,,
acc,1778672601.0,20.0,-1.453125,2.769531,-9.839844,,,,,,,,,,
acc,1778672601.0,20.0,-1.222656,2.960938,-9.757812,,,,,,,,,,
acc,1778672601.0,20.0,-1.1875,2.847656,-9.496094,,,,,,,,,,
acc,1778672601.0,20.0,-1.261719,2.808594,-10.03125,,,,,,,,,,
acc,1778672601.0,20.0,-1.300781,2.617188,-9.496094,,,,,,,,,,
acc,1778672601.0,20.0,-1.300781,2.464844,-9.992188,,,,,,,,,,
acc,1778672601.0,20.0,-1.222656,2.195312,-9.535156,,,,,,,,,,
acc,1778672601.0,20.0,-1.222656,2.234375,-9.835938,,,,,,,,,,
acc,1778672601.0,20.0,-1.300781,2.003906,-9.574219,,,,,,,,,,
acc,1778672601.0,20.0,-1.378906,2.042969,-9.726562,,,,,,,,,,
acc,1778672601.0,20.0,-1.453125,2.234375,-9.878906,,,,,,,,,,
acc,1778672601.0,20.0,-1.339844,2.082031,-9.839844,,,,,,,,,,
acc,1778672601.0,20.0,-1.453125,2.234375,-9.917969,,,,,,,,,,
acc,1778672601.0,20.0,-1.453125,2.347656,-10.074219,,,,,,,,,,
acc,1778672601.0,20.0,-1.414062,2.578125,-10.113281,,,,,,,,,,
acc,1778672601.0,20.0,-1.453125,2.464844,-9.648438,,,,,,,,,,
acc,1778672601.0,20.0,-1.339844,2.273438,-10.03125,,,,,,,,,,
acc,1778672601.0,20.0,-1.148438,2.3125,-9.691406,,,,,,,,,,
acc,1778672601.0,20.0,-1.1875,2.464844,-9.570312,,,,,,,,,,
acc,1778672601.0,20.0,-1.222656,2.65625,-9.800781,,,,,,,,,,
acc,1778672601.0,20.0,-1.339844,2.769531,-9.757812,,,,,,,,,,
acc,1778672601.0,20.0,-1.414062,2.695312,-9.757812,,,,,,,,,,
acc,1778672601.0,20.0,-1.1875,2.730469,-10.152344,,,,,,,,,,
acc,1778672601.0,20.0,-1.261719,2.578125,-9.609375,,,,,,,,,,
acc,1778672601.0,20.0,-1.378906,2.695312,-9.917969,,,,,,,,,,
acc,1778672601.0,20.0,-1.261719,2.960938,-9.992188,,,,,,,,,,
acc,1778672601.0,20.0,-1.109375,2.886719,-9.574219,,,,,,,,,,
acc,1778672601.0,20.0,-1.261719,2.960938,-9.953125,,,,,,,,,,
acc,1778672601.0,20.0,-1.261719,2.847656,-9.878906,,,,,,,,,,
acc,1778672601.0,20.0,-1.222656,2.425781,-9.835938,,,,,,,,,,
acc,1778672601.0,20.0,-1.109375,2.386719,-9.574219,,,,,,,,,,
acc,1778672602.0,21.0,-1.1875,2.386719,-9.417969,,,,,,,,,,
acc,1778672602.0,21.0,-1.300781,2.042969,-9.730469,,,,,,,,,,
acc,1778672602.0,21.0,-1.261719,2.386719,-9.496094,,,,,,,,,,
acc,1778672602.0,21.0,-1.1875,2.386719,-9.761719,,,,,,,,,,
acc,1778672602.0,21.0,-1.070312,2.695312,-9.917969,,,,,,,,,,
acc,1778672602.0,21.0,-1.300781,2.925781,-9.496094,,,,,,,,,,
acc,1778672602.0,21.0,-1.414062,2.808594,-10.035156,,,,,,,,,,
acc,1778672602.0,21.0,-1.148438,2.847656,-9.757812,,,,,,,,,,
acc,1778672602.0,21.0,-1.148438,2.769531,-9.726562,,,,,,,,,,
acc,1778672602.0,21.0,-1.1875,2.808594,-9.835938,,,,,,,,,,
acc,1778672602.0,21.0,-1.1875,2.464844,-9.726562,,,,,,,,,,
acc,1778672602.0,21.0,-1.339844,2.539062,-9.609375,,,,,,,,,,
acc,1778672602.0,21.0,-1.414062,2.539062,-9.878906,,,,,,,,,,
acc,1778672602.0,21.0,-1.339844,2.578125,-9.800781,,,,,,,,,,
acc,1778672602.0,21.0,-1.339844,2.65625,-9.835938,,,,,,,,,,
acc,1778672602.0,21.0,-1.222656,2.695312,-9.839844,,,,,,,,,,
acc,1778672602.0,21.0,-1.300781,3.0,-9.839844,,,,,,,,,,
acc,1778672602.0,21.0,-1.378906,2.464844,-9.761719,,,,,,,,,,
acc,1778672602.0,21.0,-1.300781,2.15625,-9.957031,,,,,,,,,,
acc,1778672602.0,21.0,-1.300781,2.15625,-9.613281,,,,,,,,,,
acc,1778672602.0,21.0,-1.148438,2.042969,-9.757812,,,,,,,,,,
acc,1778672602.0,21.0,-1.109375,2.3125,-9.609375,,,,,,,,,,
acc,1778672602.0,21.0,-1.109375,2.695312,-9.914062,,,,,,,,,,
acc,1778672602.0,21.0,-1.070312,3.117188,-9.800781,,,,,,,,,,
acc,1778672602.0,21.0,-1.109375,3.34375,-9.878906,,,,,,,,,,
acc,1778672602.0,21.0,-1.222656,3.039062,-10.074219,,,,,,,,,,
acc,1778672602.0,21.0,-1.148438,3.117188,-9.839844,,,,,,,,,,
acc,1778672602.0,21.0,-1.148438,3.230469,-9.800781,,,,,,,,,,
acc,1778672602.0,21.0,-1.1875,3.0,-9.914062,,,,,,,,,,
acc,1778672602.0,21.0,-1.070312,2.886719,-9.878906,,,,,,,,,,
acc,1778672602.0,21.0,-1.03125,2.769531,-9.839844,,,,,,,,,,
acc,1778672602.0,21.0,-1.261719,2.695312,-9.761719,,,,,,,,,,
acc,1778672602.0,21.0,-1.1875,2.769531,-9.875,,,,,,,,,,
acc,1778672602.0,21.0,-0.996094,2.960938,-9.914062,,,,,,,,,,
acc,1778672602.0,21.0,-1.222656,3.0,-9.609375,,,,,,,,,,
acc,1778672602.0,21.0,-1.1875,3.117188,-10.148438,,,,,,,,,,
acc,1778672602.0,21.0,-1.222656,3.152344,-9.609375,,,,,,,,,,
acc,1778672602.0,21.0,-1.148438,3.117188,-9.839844,,,,,,,,,,
acc,1778672602.0,21.0,-1.148438,3.0,-9.996094,,,,,,,,,,
acc,1778672602.0,21.0,-1.378906,2.617188,-9.492188,,,,,,,,,,
acc,1778672602.0,21.0,-1.378906,2.578125,-9.757812,,,,,,,,,,
acc,1778672602.0,21.0,-1.03125,2.695312,-9.875,,,,,,,,,,
acc,1778672602.0,21.0,-0.839844,2.886719,-9.417969,,,,,,,,,,
acc,1778672602.0,21.0,-1.070312,2.925781,-9.691406,,,,,,,,,,
acc,1778672602.0,21.0,-1.070312,2.960938,-9.691406,,,,,,,,,,
acc,1778672602.0,21.0,-1.070312,3.382812,-9.730469,,,,,,,,,,
acc,1778672602.0,21.0,-1.109375,3.308594,-9.957031,,,,,,,,,,
acc,1778672602.0,21.0,-1.1875,3.078125,-9.648438,,,,,,,,,,
acc,1778672602.0,21.0,-1.300781,3.191406,-10.21875,,,,,,,,,,
acc,1778672602.0,21.0,-1.300781,3.152344,-9.570312,,,,,,,,,,
acc,1778672602.0,21.0,-1.1875,3.0,-9.875,,,,,,,,,,
acc,1778672602.0,21.0,-1.148438,2.960938,-9.957031,,,,,,,,,,
acc,1778672602.0,21.0,-1.148438,2.847656,-9.492188,,,,,,,,,,
acc,1778672602.0,21.0,-1.222656,2.886719,-9.796875,,,,,,,,,,
acc,1778672602.0,21.0,-1.222656,2.925781,-9.648438,,,,,,,,,,
acc,1778672602.0,21.0,-1.222656,2.886719,-9.957031,,,,,,,,,,
acc,1778672602.0,21.0,-1.300781,2.925781,-9.761719,,,,,,,,,,
acc,1778672602.0,21.0,-1.148438,2.886719,-9.953125,,,,,,,,,,
acc,1778672602.0,21.0,-1.261719,2.808594,-9.574219,,,,,,,,,,
acc,1778672602.0,21.0,-1.300781,2.960938,-9.726562,,,,,,,,,,
acc,1778672602.0,21.0,-1.222656,2.503906,-9.726562,,,,,,,,,,
acc,1778672602.0,21.0,-1.339844,2.847656,-9.761719,,,,,,,,,,
acc,1778672602.0,21.0,-1.378906,3.152344,-9.835938,,,,,,,,,,
acc,1778672602.0,21.0,-1.453125,3.152344,-9.917969,,,,,,,,,,
acc,1778672602.0,21.0,-1.492188,2.925781,-9.917969,,,,,,,,,,
acc,1778672602.0,21.0,-1.53125,2.925781,-9.917969,,,,,,,,,,
acc,1778672602.0,21.0,-1.261719,2.539062,-9.757812,,,,,,,,,,
acc,1778672602.0,21.0,-1.1875,2.273438,-9.648438,,,,,,,,,,
acc,1778672602.0,21.0,-1.222656,2.925781,-9.875,,,,,,,,,,
acc,1778672602.0,21.0,-1.109375,3.308594,-9.457031,,,,,,,,,,
acc,1778672602.0,21.0,-1.222656,2.886719,-9.761719,,,,,,,,,,
acc,1778672602.0,21.0,-1.261719,3.117188,-9.953125,,,,,,,,,,
acc,1778672602.0,21.0,-1.339844,3.078125,-10.03125,,,,,,,,,,
acc,1778672602.0,21.0,-1.148438,3.0,-9.761719,,,,,,,,,,
acc,1778672602.0,21.0,-0.957031,2.695312,-9.6875,,,,,,,,,,
acc,1778672602.0,21.0,-0.878906,2.886719,-9.957031,,,,,,,,,,
acc,1778672602.0,21.0,-1.109375,3.117188,-9.417969,,,,,,,,,,
acc,1778672602.0,21.0,-1.070312,2.847656,-9.878906,,,,,,,,,,
acc,1778672602.0,21.0,-0.957031,2.578125,-9.914062,,,,,,,,,,
acc,1778672602.0,21.0,-1.03125,2.539062,-9.761719,,,,,,,,,,
acc,1778672602.0,21.0,-1.261719,2.886719,-10.070312,,,,,,,,,,
acc,1778672602.0,21.0,-1.1875,3.308594,-9.835938,,,,,,,,,,
acc,1778672602.0,21.0,-1.070312,3.382812,-9.992188,,,,,,,,,,
acc,1778672602.0,21.0,-1.261719,3.5,-10.074219,,,,,,,,,,
acc,1778672602.0,21.0,-1.300781,3.382812,-9.839844,,,,,,,,,,
acc,1778672602.0,21.0,-1.378906,3.460938,-9.953125,,,,,,,,,,
acc,1778672602.0,21.0,-1.261719,3.34375,-10.074219,,,,,,,,,,
acc,1778672602.0,21.0,-1.070312,3.230469,-9.613281,,,,,,,,,,
acc,1778672602.0,21.0,-1.1875,3.078125,-9.875,,,,,,,,,,
acc,1778672602.0,21.0,-1.300781,3.460938,-9.761719,,,,,,,,,,
acc,1778672602.0,21.0,-1.339844,3.34375,-9.800781,,,,,,,,,,
acc,1778672602.0,21.0,-1.148438,3.0,-9.878906,,,,,,,,,,
acc,1778672602.0,21.0,-1.03125,3.152344,-9.613281,,,,,,,,,,
acc,1778672602.0,21.0,-1.109375,2.730469,-9.800781,,,,,,,,,,
acc,1778672602.0,21.0,-1.222656,2.925781,-9.648438,,,,,,,,,,
acc,1778672602.0,21.0,-1.148438,2.65625,-9.796875,,,,,,,,,,
acc,1778672602.0,21.0,-1.109375,2.464844,-9.53125,,,,,,,,,,
acc,1778672602.0,21.0,-1.261719,2.960938,-9.609375,,,,,,,,,,
acc,1778672602.0,21.0,-1.300781,3.0,-9.6875,,,,,,,,,,
acc,1778672602.0,21.0,-1.222656,2.65625,-9.375,,,,,,,,,,
acc,1778672602.0,21.0,-1.070312,2.769531,-9.648438,,,,,,,,,,
acc,1778672602.0,21.0,-1.1875,2.925781,-9.648438,,,,,,,,,,
acc,1778672602.0,21.0,-1.222656,2.695312,-9.308594,,,,,,,,,,
acc,1778672602.0,21.0,-1.109375,2.886719,-9.835938,,,,,,,,,,
acc,1778672602.0,21.0,-0.878906,2.808594,-9.414062,,,,,,,,,,
acc,1778672602.0,21.0,-0.878906,2.730469,-9.417969,,,,,,,,,,
acc,1778672602.0,21.0,-1.070312,3.078125,-9.953125,,,,,,,,,,
acc,1778672602.0,21.0,-1.222656,2.769531,-9.304688,,,,,,,,,,
acc,1778672602.0,21.0,-1.222656,2.617188,-9.800781,,,,,,,,,,
acc,1778672602.0,21.0,-1.1875,3.0,-9.757812,,,,,,,,,,
acc,1778672602.0,21.0,-1.261719,3.078125,-9.53125,,,,,,,,,,
acc,1778672602.0,21.0,-1.339844,3.421875,-10.035156,,,,,,,,,,
acc,1778672602.0,21.0,-1.1875,3.574219,-9.652344,,,,,,,,,,
acc,1778672602.0,21.0,-1.109375,3.652344,-9.570312,,,,,,,,,,
acc,1778672602.0,21.0,-1.148438,3.421875,-9.914062,,,,,,,,,,
acc,1778672602.0,21.0,-1.03125,3.269531,-9.796875,,,,,,,,,,
acc,1778672602.0,21.0,-1.148438,3.269531,-9.878906,,,,,,,,,,
acc,1778672602.0,21.0,-1.148438,3.269531,-10.070312,,,,,,,,,,
acc,1778672602.0,21.0,-1.148438,3.269531,-9.796875,,,,,,,,,,
acc,1778672602.0,21.0,-1.109375,3.0,-10.035156,,,,,,,,,,
acc,1778672602.0,21.0,-0.917969,3.078125,-10.148438,,,,,,,,,,
acc,1778672602.0,21.0,-0.957031,3.191406,-9.535156,,,,,,,,,,
acc,1778672602.0,21.0,-1.03125,3.308594,-10.070312,,,,,,,,,,
acc,1778672602.0,21.0,-0.957031,3.191406,-9.796875,,,,,,,,,,
acc,1778672602.0,21.0,-0.804688,3.117188,-9.613281,,,,,,,,,,
acc,1778672602.0,21.0,-0.804688,3.191406,-9.800781,,,,,,,,,,
acc,1778672602.0,21.0,-0.804688,2.847656,-9.574219,,,,,,,,,,
acc,1778672602.0,21.0,-0.804688,2.886719,-9.800781,,,,,,,,,,
acc,1778672603.0,22.0,-0.804688,3.308594,-9.726562,,,,,,,,,,
acc,1778672603.0,22.0,-0.804688,3.039062,-9.613281,,,,,,,,,,
acc,1778672603.0,22.0,-0.726562,3.039062,-9.835938,,,,,,,,,,
acc,1778672603.0,22.0,-0.613281,3.117188,-9.492188,,,,,,,,,,
acc,1778672603.0,22.0,-0.6875,3.117188,-9.914062,,,,,,,,,,
acc,1778672603.0,22.0,-0.6875,3.230469,-9.570312,,,,,,,,,,
acc,1778672603.0,22.0,-0.765625,3.269531,-9.652344,,,,,,,,,,
acc,1778672603.0,22.0,-0.804688,3.308594,-9.6875,,,,,,,,,,
acc,1778672603.0,22.0,-0.496094,3.191406,-9.613281,,,,,,,,,,
acc,1778672603.0,22.0,-0.496094,3.230469,-9.496094,,,,,,,,,,
acc,1778672603.0,22.0,-0.6875,3.308594,-9.453125,,,,,,,,,,
acc,1778672603.0,22.0,-0.648438,3.535156,-9.761719,,,,,,,,,,
acc,1778672603.0,22.0,-0.574219,3.34375,-9.457031,,,,,,,,,,
acc,1778672603.0,22.0,-0.6875,3.34375,-9.609375,,,,,,,,,,
acc,1778672603.0,22.0,-0.6875,3.421875,-9.917969,,,,,,,,,,
acc,1778672603.0,22.0,-0.535156,3.382812,-9.835938,,,,,,,,,,
acc,1778672603.0,22.0,-0.6875,3.421875,-9.726562,,,,,,,,,,
acc,1778672603.0,22.0,-0.765625,3.5,-9.761719,,,,,,,,,,
acc,1778672603.0,22.0,-0.726562,3.421875,-9.996094,,,,,,,,,,
acc,1778672603.0,22.0,-0.6875,3.191406,-9.457031,,,,,,,,,,
acc,1778672603.0,22.0,-0.574219,3.230469,-9.691406,,,,,,,,,,
acc,1778672603.0,22.0,-0.648438,3.5,-9.6875,,,,,,,,,,
acc,1778672603.0,22.0,-0.648438,3.421875,-9.691406,,,,,,,,,,
acc,1778672603.0,22.0,-0.648438,3.269531,-9.839844,,,,,,,,,,
acc,1778672603.0,22.0,-0.648438,3.535156,-9.6875,,,,,,,,,,
acc,1778672603.0,22.0,-0.804688,3.269531,-9.570312,,,,,,,,,,
acc,1778672603.0,22.0,-0.613281,3.308594,-9.835938,,,,,,,,,,
acc,1778672603.0,22.0,-0.574219,3.308594,-9.496094,,,,,,,,,,
acc,1778672603.0,22.0,-0.6875,3.0,-9.835938,,,,,,,,,,
acc,1778672603.0,22.0,-0.648438,3.34375,-9.796875,,,,,,,,,,
acc,1778672603.0,22.0,-0.726562,3.613281,-9.757812,,,,,,,,,,
acc,1778672603.0,22.0,-0.613281,3.382812,-9.730469,,,,,,,,,,
acc,1778672603.0,22.0,-0.613281,3.421875,-9.6875,,,,,,,,,,
acc,1778672603.0,22.0,-0.6875,3.230469,-9.761719,,,,,,,,,,
acc,1778672603.0,22.0,-0.726562,3.382812,-9.609375,,,,,,,,,,
acc,1778672603.0,22.0,-0.726562,3.535156,-9.914062,,,,,,,,,,
acc,1778672603.0,22.0,-0.648438,3.5,-9.6875,,,,,,,,,,
acc,1778672603.0,22.0,-0.726562,3.574219,-9.796875,,,,,,,,,,
acc,1778672603.0,22.0,-0.726562,3.460938,-9.609375,,,,,,,,,,
acc,1778672603.0,22.0,-0.496094,3.230469,-9.761719,,,,,,,,,,
acc,1778672603.0,22.0,-0.457031,3.152344,-9.875,,,,,,,,,,
acc,1778672603.0,22.0,-0.726562,3.269531,-10.21875,,,,,,,,,,
acc,1778672603.0,22.0,-0.726562,3.230469,-10.035156,,,,,,,,,,
acc,1778672603.0,22.0,-0.726562,3.460938,-9.757812,,,,,,,,,,
acc,1778672603.0,22.0,-0.613281,2.960938,-9.800781,,,,,,,,,,
acc,1778672603.0,22.0,-0.535156,3.191406,-9.652344,,,,,,,,,,
acc,1778672603.0,22.0,-0.496094,3.5,-9.757812,,,,,,,,,,
acc,1778672603.0,22.0,-0.496094,3.613281,-9.914062,,,,,,,,,,
acc,1778672603.0,22.0,-0.574219,3.804688,-9.691406,,,,,,,,,,
acc,1778672603.0,22.0,-0.765625,4.035156,-10.261719,,,,,,,,,,
acc,1778672603.0,22.0,-0.613281,3.613281,-9.835938,,,,,,,,,,
acc,1778672603.0,22.0,-0.535156,3.804688,-10.179688,,,,,,,,,,
acc,1778672603.0,22.0,-0.574219,3.574219,-9.800781,,,,,,,,,,
acc,1778672603.0,22.0,-0.6875,3.0,-10.074219,,,,,,,,,,
acc,1778672603.0,22.0,-0.765625,3.382812,-10.070312,,,,,,,,,,
acc,1778672603.0,22.0,-0.6875,3.421875,-9.878906,,,,,,,,,,
acc,1778672603.0,22.0,-0.726562,3.152344,-9.800781,,,,,,,,,,
acc,1778672603.0,22.0,-0.726562,3.421875,-10.113281,,,,,,,,,,
acc,1778672603.0,22.0,-0.574219,3.613281,-9.613281,,,,,,,,,,
acc,1778672603.0,22.0,-0.535156,3.382812,-9.691406,,,,,,,,,,
acc,1778672603.0,22.0,-0.648438,3.191406,-9.953125,,,,,,,,,,
acc,1778672603.0,22.0,-0.6875,3.117188,-9.914062,,,,,,,,,,
acc,1778672603.0,22.0,-0.804688,3.117188,-10.070312,,,,,,,,,,
acc,1778672603.0,22.0,-0.765625,3.382812,-9.796875,,,,,,,,,,
acc,1778672603.0,22.0,-0.765625,3.308594,-9.917969,,,,,,,,,,
acc,1778672603.0,22.0,-0.613281,3.230469,-9.6875,,,,,,,,,,
acc,1778672603.0,22.0,-0.457031,3.652344,-9.914062,,,,,,,,,,
acc,1778672603.0,22.0,-0.574219,3.574219,-9.757812,,,,,,,,,,
acc,1778672603.0,22.0,-0.535156,3.34375,-9.835938,,,,,,,,,,
acc,1778672603.0,22.0,-0.574219,3.230469,-9.875,,,,,,,,,,
acc,1778672603.0,22.0,-0.574219,3.421875,-9.835938,,,,,,,,,,
acc,1778672603.0,22.0,-0.613281,3.34375,-9.730469,,,,,,,,,,
acc,1778672603.0,22.0,-0.648438,3.5,-9.652344,,,,,,,,,,
acc,1778672603.0,22.0,-0.613281,3.691406,-10.152344,,,,,,,,,,
acc,1778672603.0,22.0,-0.648438,3.535156,-9.796875,,,,,,,,,,
acc,1778672603.0,22.0,-0.765625,3.5,-9.957031,,,,,,,,,,
acc,1778672603.0,22.0,-0.726562,3.765625,-10.179688,,,,,,,,,,
acc,1778672603.0,22.0,-0.613281,3.652344,-9.914062,,,,,,,,,,
acc,1778672603.0,22.0,-0.648438,3.652344,-10.070312,,,,,,,,,,
acc,1778672603.0,22.0,-0.648438,3.882812,-10.152344,,,,,,,,,,
acc,1778672603.0,22.0,-0.726562,3.574219,-9.839844,,,,,,,,,,
acc,1778672603.0,22.0,-0.726562,3.882812,-10.148438,,,,,,,,,,
acc,1778672603.0,22.0,-0.648438,4.074219,-9.835938,,,,,,,,,,
acc,1778672603.0,22.0,-0.574219,3.84375,-10.035156,,,,,,,,,,
acc,1778672603.0,22.0,-0.574219,3.765625,-9.800781,,,,,,,,,,
acc,1778672603.0,22.0,-0.648438,3.726562,-10.113281,,,,,,,,,,
acc,1778672603.0,22.0,-0.613281,3.535156,-9.992188,,,,,,,,,,
acc,1778672603.0,22.0,-0.535156,3.574219,-9.957031,,,,,,,,,,
acc,1778672603.0,22.0,-0.574219,3.691406,-9.992188,,,,,,,,,,
acc,1778672603.0,22.0,-0.726562,3.574219,-9.878906,,,,,,,,,,
acc,1778672603.0,22.0,-0.648438,3.652344,-10.035156,,,,,,,,,,
acc,1778672603.0,22.0,-0.6875,3.882812,-9.835938,,,,,,,,,,
acc,1778672603.0,22.0,-0.648438,3.804688,-9.914062,,,,,,,,,,
acc,1778672603.0,22.0,-0.6875,3.421875,-9.878906,,,,,,,,,,
acc,1778672603.0,22.0,-0.726562,3.308594,-9.992188,,,,,,,,,,
acc,1778672603.0,22.0,-0.726562,3.382812,-9.914062,,,,,,,,,,
acc,1778672603.0,22.0,-0.574219,3.535156,-9.878906,,,,,,,,,,
acc,1778672603.0,22.0,-0.574219,3.691406,-9.648438,,,,,,,,,,
acc,1778672603.0,22.0,-0.574219,3.726562,-9.957031,,,,,,,,,,
acc,1778672603.0,22.0,-0.648438,3.5,-9.535156,,,,,,,,,,
acc,1778672603.0,22.0,-0.613281,3.460938,-10.074219,,,,,,,,,,
acc,1778672603.0,22.0,-0.6875,3.152344,-9.609375,,,,,,,,,,
acc,1778672603.0,22.0,-0.613281,3.5,-9.757812,,,,,,,,,,
acc,1778672603.0,22.0,-0.726562,3.535156,-9.914062,,,,,,,,,,
acc,1778672603.0,22.0,-0.839844,3.382812,-10.109375,,,,,,,,,,
acc,1778672603.0,22.0,-0.878906,3.535156,-9.800781,,,,,,,,,,
acc,1778672603.0,22.0,-0.917969,3.5,-10.300781,,,,,,,,,,
acc,1778672603.0,22.0,-0.804688,3.191406,-9.757812,,,,,,,,,,
acc,1778672603.0,22.0,-0.878906,3.382812,-10.21875,,,,,,,,,,
acc,1778672603.0,22.0,-0.917969,3.613281,-9.691406,,,,,,,,,,
acc,1778672603.0,22.0,-0.765625,3.726562,-9.761719,,,,,,,,,,
acc,1778672603.0,22.0,-0.765625,3.5,-9.957031,,,,,,,,,,
acc,1778672603.0,22.0,-0.804688,3.230469,-9.609375,,,,,,,,,,
acc,1778672603.0,22.0,-0.957031,3.574219,-9.917969,,,,,,,,,,
acc,1778672603.0,22.0,-0.957031,3.5,-9.757812,,,,,,,,,,
acc,1778672603.0,22.0,-0.839844,3.691406,-9.957031,,,,,,,,,,
acc,1778672603.0,22.0,-0.878906,3.996094,-9.953125,,,,,,,,,,
acc,1778672603.0,22.0,-0.917969,3.957031,-9.757812,,,,,,,,,,
acc,1778672603.0,22.0,-0.878906,3.765625,-9.6875,,,,,,,,,,
acc,1778672603.0,22.0,-0.765625,3.765625,-9.835938,,,,,,,,,,
acc,1778672603.0,22.0,-0.613281,3.765625,-9.613281,,,,,,,,,,
acc,1778672603.0,22.0,-0.765625,3.957031,-9.957031,,,,,,,,,,
acc,1778672603.0,22.0,-0.917969,3.652344,-9.800781,,,,,,,,,,
acc,1778672603.0,22.0,-0.917969,3.460938,-9.800781,,,,,,,,,,
acc,1778672604.0,23.0,-0.765625,3.574219,-9.835938,,,,,,,,,,
acc,1778672604.0,23.0,-0.726562,3.382812,-9.648438,,,,,,,,,,
acc,1778672604.0,23.0,-0.6875,3.84375,-9.800781,,,,,,,,,,
acc,1778672604.0,23.0,-0.765625,3.921875,-9.574219,,,,,,,,,,
acc,1778672604.0,23.0,-0.648438,3.726562,-9.878906,,,,,,,,,,
acc,1778672604.0,23.0,-0.648438,3.652344,-9.496094,,,,,,,,,,
acc,1778672604.0,23.0,-0.6875,3.691406,-9.761719,,,,,,,,,,
acc,1778672604.0,23.0,-0.804688,3.882812,-9.917969,,,,,,,,,,
acc,1778672604.0,23.0,-0.878906,3.691406,-9.652344,,,,,,,,,,
acc,1778672604.0,23.0,-0.878906,3.652344,-9.875,,,,,,,,,,
acc,1778672604.0,23.0,-0.804688,3.765625,-10.074219,,,,,,,,,,
acc,1778672604.0,23.0,-0.804688,3.574219,-9.914062,,,,,,,,,,
acc,1778672604.0,23.0,-0.878906,3.34375,-10.109375,,,,,,,,,,
acc,1778672604.0,23.0,-0.878906,3.460938,-9.875,,,,,,,,,,
acc,1778672604.0,23.0,-0.839844,3.613281,-9.648438,,,,,,,,,,
acc,1778672604.0,23.0,-0.726562,3.460938,-9.953125,,,,,,,,,,
acc,1778672604.0,23.0,-0.648438,3.152344,-9.308594,,,,,,,,,,
acc,1778672604.0,23.0,-0.6875,3.421875,-9.878906,,,,,,,,,,
acc,1778672604.0,23.0,-0.804688,3.308594,-9.570312,,,,,,,,,,
acc,1778672604.0,23.0,-0.765625,3.152344,-9.878906,,,,,,,,,,
acc,1778672604.0,23.0,-0.839844,3.460938,-9.453125,,,,,,,,,,
acc,1778672604.0,23.0,-0.878906,3.535156,-9.992188,,,,,,,,,,
acc,1778672604.0,23.0,-0.726562,3.34375,-9.757812,,,,,,,,,,
acc,1778672604.0,23.0,-0.6875,3.269531,-9.574219,,,,,,,,,,
acc,1778672604.0,23.0,-0.648438,3.382812,-9.839844,,,,,,,,,,
acc,1778672604.0,23.0,-0.574219,3.308594,-9.457031,,,,,,,,,,
acc,1778672604.0,23.0,-0.613281,3.5,-9.730469,,,,,,,,,,
acc,1778672604.0,23.0,-0.6875,3.691406,-9.570312,,,,,,,,,,
acc,1778672604.0,23.0,-0.535156,3.652344,-9.730469,,,,,,,,,,
acc,1778672604.0,23.0,-0.535156,3.613281,-9.53125,,,,,,,,,,
acc,1778672604.0,23.0,-0.574219,3.34375,-9.535156,,,,,,,,,,
acc,1778672604.0,23.0,-0.574219,3.308594,-9.796875,,,,,,,,,,
acc,1778672604.0,23.0,-0.417969,3.574219,-9.761719,,,,,,,,,,
acc,1778672604.0,23.0,-0.496094,3.613281,-9.453125,,,,,,,,,,
acc,1778672604.0,23.0,-0.574219,3.726562,-9.839844,,,,,,,,,,
acc,1778672604.0,23.0,-0.457031,3.804688,-9.761719,,,,,,,,,,
acc,1778672604.0,23.0,-0.382812,3.308594,-9.453125,,,,,,,,,,
acc,1778672604.0,23.0,-0.457031,3.460938,-9.914062,,,,,,,,,,
acc,1778672604.0,23.0,-0.382812,3.652344,-9.730469,,,,,,,,,,
acc,1778672604.0,23.0,-0.417969,3.996094,-9.757812,,,,,,,,,,
acc,1778672604.0,23.0,-0.726562,3.921875,-9.796875,,,,,,,,,,
acc,1778672604.0,23.0,-0.726562,4.035156,-9.992188,,,,,,,,,,
acc,1778672604.0,23.0,-0.839844,4.1875,-9.835938,,,,,,,,,,
acc,1778672604.0,23.0,-0.648438,3.765625,-9.730469,,,,,,,,,,
acc,1778672604.0,23.0,-0.535156,3.726562,-9.492188,,,,,,,,,,
acc,1778672604.0,23.0,-0.6875,3.996094,-9.574219,,,,,,,,,,
acc,1778672604.0,23.0,-0.957031,4.226562,-9.757812,,,,,,,,,,
acc,1778672604.0,23.0,-0.804688,4.339844,-9.496094,,,,,,,,,,
acc,1778672604.0,23.0,-0.726562,4.148438,-10.113281,,,,,,,,,,
acc,1778672604.0,23.0,-0.726562,4.113281,-9.414062,,,,,,,,,,
acc,1778672604.0,23.0,-0.917969,4.265625,-9.796875,,,,,,,,,,
acc,1778672604.0,23.0,-0.765625,3.921875,-9.574219,,,,,,,,,,
acc,1778672604.0,23.0,-0.839844,4.1875,-9.609375,,,,,,,,,,
acc,1778672604.0,23.0,-0.804688,4.1875,-9.878906,,,,,,,,,,
acc,1778672604.0,23.0,-0.765625,4.074219,-9.304688,,,,,,,,,,
acc,1778672604.0,23.0,-0.917969,4.226562,-9.691406,,,,,,,,,,
acc,1778672604.0,23.0,-0.6875,3.882812,-9.609375,,,,,,,,,,
acc,1778672604.0,23.0,-0.613281,3.882812,-9.148438,,,,,,,,,,
acc,1778672604.0,23.0,-0.765625,4.035156,-9.6875,,,,,,,,,,
acc,1778672604.0,23.0,-0.726562,4.113281,-9.730469,,,,,,,,,,
acc,1778672604.0,23.0,-0.726562,3.996094,-9.347656,,,,,,,,,,
acc,1778672604.0,23.0,-0.535156,3.996094,-9.757812,,,,,,,,,,
acc,1778672604.0,23.0,-0.457031,4.035156,-9.757812,,,,,,,,,,
acc,1778672604.0,23.0,-0.648438,3.957031,-9.535156,,,,,,,,,,
acc,1778672604.0,23.0,-0.613281,4.074219,-9.726562,,,,,,,,,,
acc,1778672604.0,23.0,-0.613281,3.882812,-9.609375,,,,,,,,,,
acc,1778672604.0,23.0,-0.648438,3.574219,-9.757812,,,,,,,,,,
acc,1778672604.0,23.0,-0.535156,3.691406,-9.6875,,,,,,,,,,
acc,1778672604.0,23.0,-0.648438,3.882812,-9.796875,,,,,,,,,,
acc,1778672604.0,23.0,-0.648438,3.765625,-10.148438,,,,,,,,,,
acc,1778672604.0,23.0,-0.6875,3.613281,-10.074219,,,,,,,,,,
acc,1778672604.0,23.0,-0.804688,3.613281,-9.878906,,,,,,,,,,
acc,1778672604.0,23.0,-0.613281,3.460938,-10.148438,,,,,,,,,,
acc,1778672604.0,23.0,-0.417969,3.382812,-9.835938,,,,,,,,,,
acc,1778672604.0,23.0,-0.574219,3.421875,-9.914062,,,,,,,,,,
acc,1778672604.0,23.0,-0.574219,3.460938,-10.179688,,,,,,,,,,
acc,1778672604.0,23.0,-0.535156,3.613281,-9.875,,,,,,,,,,
acc,1778672604.0,23.0,-0.496094,3.804688,-9.996094,,,,,,,,,,
acc,1778672604.0,23.0,-0.417969,3.5,-10.109375,,,,,,,,,,
acc,1778672604.0,23.0,-0.496094,3.574219,-9.957031,,,,,,,,,,
acc,1778672604.0,23.0,-0.496094,3.882812,-9.992188,,,,,,,,,,
acc,1778672604.0,23.0,-0.304688,3.882812,-9.917969,,,,,,,,,,
acc,1778672604.0,23.0,-0.34375,3.804688,-9.613281,,,,,,,,,,
acc,1778672604.0,23.0,-0.417969,3.921875,-10.035156,,,,,,,,,,
acc,1778672604.0,23.0,-0.417969,3.613281,-9.609375,,,,,,,,,,
acc,1778672604.0,23.0,-0.265625,3.574219,-9.730469,,,,,,,,,,
acc,1778672604.0,23.0,-0.265625,3.535156,-9.917969,,,,,,,,,,
acc,1778672604.0,23.0,-0.417969,3.460938,-9.574219,,,,,,,,,,
acc,1778672604.0,23.0,-0.417969,3.726562,-9.835938,,,,,,,,,,
acc,1778672604.0,23.0,-0.265625,3.726562,-9.6875,,,,,,,,,,
acc,1778672604.0,23.0,-0.074219,3.957031,-9.726562,,,,,,,,,,
acc,1778672604.0,23.0,-0.226562,4.304688,-9.570312,,,,,,,,,,
acc,1778672604.0,23.0,-0.191406,4.074219,-9.609375,,,,,,,,,,
acc,1778672604.0,23.0,-0.191406,4.074219,-9.648438,,,,,,,,,,
acc,1778672604.0,23.0,-0.113281,4.113281,-10.03125,,,,,,,,,,
acc,1778672604.0,23.0,-0.152344,4.148438,-9.878906,,,,,,,,,,
acc,1778672604.0,23.0,-0.152344,4.339844,-9.875,,,,,,,,,,
acc,1778672604.0,23.0,-0.152344,3.996094,-9.835938,,,,,,,,,,
acc,1778672604.0,23.0,-0.074219,3.726562,-9.917969,,,,,,,,,,
acc,1778672604.0,23.0,-0.265625,4.035156,-9.796875,,,,,,,,,,
acc,1778672604.0,23.0,-0.496094,4.035156,-9.953125,,,,,,,,,,
acc,1778672604.0,23.0,-0.382812,3.882812,-9.992188,,,,,,,,,,
acc,1778672604.0,23.0,-0.265625,3.726562,-9.6875,,,,,,,,,,
acc,1778672604.0,23.0,-0.191406,3.691406,-9.992188,,,,,,,,,,
acc,1778672604.0,23.0,-0.226562,3.691406,-9.878906,,,,,,,,,,
acc,1778672604.0,23.0,-0.417969,3.804688,-9.957031,,,,,,,,,,
acc,1778672604.0,23.0,-0.457031,3.765625,-9.839844,,,,,,,,,,
acc,1778672604.0,23.0,-0.34375,3.652344,-10.03125,,,,,,,,,,
acc,1778672604.0,23.0,-0.382812,3.765625,-9.878906,,,,,,,,,,
acc,1778672604.0,23.0,-0.496094,3.804688,-9.839844,,,,,,,,,,
acc,1778672604.0,23.0,-0.496094,3.765625,-9.996094,,,,,,,,,,
acc,1778672604.0,23.0,-0.457031,3.921875,-9.917969,,,,,,,,,,
acc,1778672604.0,23.0,-0.496094,3.726562,-9.953125,,,,,,,,,,
acc,1778672604.0,23.0,-0.535156,3.652344,-10.074219,,,,,,,,,,
acc,1778672604.0,23.0,-0.574219,3.765625,-9.992188,,,,,,,,,,
acc,1778672604.0,23.0,-0.613281,3.804688,-9.796875,,,,,,,,,,
acc,1778672604.0,23.0,-0.457031,3.726562,-10.074219,,,,,,,,,,
acc,1778672604.0,23.0,-0.34375,3.996094,-9.757812,,,,,,,,,,
acc,1778672604.0,23.0,-0.457031,4.074219,-9.761719,,,,,,,,,,
acc,1778672604.0,23.0,-0.535156,3.726562,-9.800781,,,,,,,,,,
acc,1778672604.0,23.0,-0.34375,3.726562,-9.835938,,,,,,,,,,
acc,1778672604.0,23.0,-0.304688,3.535156,-9.496094,,,,,,,,,,
acc,1778672604.0,23.0,-0.34375,3.34375,-9.835938,,,,,,,,,,
acc,1778672604.0,23.0,-0.226562,3.460938,-9.730469,,,,,,,,,,
acc,1778672604.0,23.0,-0.226562,3.382812,-9.648438,,,,,,,,,,
acc,1778672604.0,23.0,0.039062,3.613281,-10.074219,,,,,,,,,,
acc,1778672604.0,23.0,-0.035156,3.460938,-9.648438,,,,,,,,,,
acc,1778672604.0,23.0,-0.304688,3.191406,-9.875,,,,,,,,,,
acc,1778672605.0,24.0,-0.34375,3.191406,-10.070312,,,,,,,,,,
acc,1778672605.0,24.0,-0.265625,3.039062,-10.035156,,,,,,,,,,
acc,1778672605.0,24.0,-0.382812,3.117188,-9.875,,,,,,,,,,
acc,1778672605.0,24.0,-0.417969,3.117188,-10.21875,,,,,,,,,,
acc,1778672605.0,24.0,-0.417969,3.421875,-9.878906,,,,,,,,,,
acc,1778672605.0,24.0,-0.382812,3.613281,-9.835938,,,,,,,,,,
acc,1778672605.0,24.0,-0.304688,3.613281,-10.035156,,,,,,,,,,
acc,1778672605.0,24.0,-0.382812,3.726562,-9.648438,,,,,,,,,,
acc,1778672605.0,24.0,-0.535156,3.957031,-9.914062,,,,,,,,,,
acc,1778672605.0,24.0,-0.34375,3.726562,-9.730469,,,,,,,,,,
acc,1778672605.0,24.0,-0.226562,3.765625,-9.613281,,,,,,,,,,
acc,1778672605.0,24.0,-0.191406,3.691406,-9.992188,,,,,,,,,,
acc,1778672605.0,24.0,-0.265625,3.5,-9.726562,,,,,,,,,,
acc,1778672605.0,24.0,-0.304688,3.421875,-9.800781,,,,,,,,,,
acc,1778672605.0,24.0,-0.304688,3.804688,-9.992188,,,,,,,,,,
acc,1778672605.0,24.0,-0.265625,4.074219,-9.691406,,,,,,,,,,
acc,1778672605.0,24.0,-0.417969,4.074219,-9.457031,,,,,,,,,,
acc,1778672605.0,24.0,-0.34375,4.457031,-9.914062,,,,,,,,,,
acc,1778672605.0,24.0,-0.304688,4.1875,-9.269531,,,,,,,,,,
acc,1778672605.0,24.0,-0.34375,4.148438,-9.839844,,,,,,,,,,
acc,1778672605.0,24.0,-0.457031,4.148438,-9.496094,,,,,,,,,,
acc,1778672605.0,24.0,-0.382812,4.074219,-9.570312,,,,,,,,,,
acc,1778672605.0,24.0,-0.265625,4.035156,-9.535156,,,,,,,,,,
acc,1778672605.0,24.0,-0.34375,4.417969,-9.347656,,,,,,,,,,
acc,1778672605.0,24.0,-0.34375,4.570312,-9.800781,,,,,,,,,,
acc,1778672605.0,24.0,-0.226562,4.1875,-9.453125,,,,,,,,,,
acc,1778672605.0,24.0,-0.113281,4.074219,-9.613281,,,,,,,,,,
acc,1778672605.0,24.0,-0.035156,3.804688,-9.726562,,,,,,,,,,
acc,1778672605.0,24.0,-0.074219,3.191406,-9.414062,,,,,,,,,,
acc,1778672605.0,24.0,-0.152344,3.039062,-9.800781,,,,,,,,,,
acc,1778672605.0,24.0,-0.34375,3.0,-9.453125,,,,,,,,,,
acc,1778672605.0,24.0,-0.417969,3.652344,-9.757812,,,,,,,,,,
acc,1778672605.0,24.0,-0.613281,3.882812,-9.992188,,,,,,,,,,
acc,1778672605.0,24.0,-0.535156,3.882812,-9.835938,,,,,,,,,,
acc,1778672605.0,24.0,-0.417969,3.460938,-9.757812,,,,,,,,,,
acc,1778672605.0,24.0,-0.613281,3.039062,-9.875,,,,,,,,,,
acc,1778672605.0,24.0,-0.648438,2.960938,-9.957031,,,,,,,,,,
acc,1778672605.0,24.0,-0.34375,3.0,-9.875,,,,,,,,,,
acc,1778672605.0,24.0,-0.496094,3.230469,-9.761719,,,,,,,,,,
acc,1778672605.0,24.0,-0.535156,3.574219,-10.179688,,,,,,,,,,
acc,1778672605.0,24.0,-0.496094,3.574219,-9.839844,,,,,,,,,,
acc,1778672605.0,24.0,-0.417969,3.957031,-9.800781,,,,,,,,,,
acc,1778672605.0,24.0,-0.382812,4.1875,-9.875,,,,,,,,,,
acc,1778672605.0,24.0,-0.304688,4.226562,-9.613281,,,,,,,,,,
acc,1778672605.0,24.0,-0.265625,4.226562,-9.839844,,,,,,,,,,
acc,1778672605.0,24.0,-0.074219,3.691406,-9.648438,,,,,,,,,,
acc,1778672605.0,24.0,0.0,3.84375,-9.757812,,,,,,,,,,
acc,1778672605.0,24.0,-0.265625,3.765625,-9.800781,,,,,,,,,,
acc,1778672605.0,24.0,-0.265625,3.691406,-10.183594,,,,,,,,,,
acc,1778672605.0,24.0,-0.34375,3.882812,-9.875,,,,,,,,,,
acc,1778672605.0,24.0,-0.417969,3.957031,-9.992188,,,,,,,,,,
acc,1778672605.0,24.0,-0.574219,4.570312,-9.839844,,,,,,,,,,
acc,1778672605.0,24.0,-0.417969,5.109375,-9.457031,,,,,,,,,,
acc,1778672605.0,24.0,-0.265625,5.070312,-9.761719,,,,,,,,,,
acc,1778672605.0,24.0,-0.113281,4.878906,-9.414062,,,,,,,,,,
acc,1778672605.0,24.0,-0.226562,4.226562,-9.574219,,,,,,,,,,
acc,1778672605.0,24.0,-0.074219,3.84375,-9.726562,,,,,,,,,,
acc,1778672605.0,24.0,-0.074219,3.765625,-9.53125,,,,,,,,,,
acc,1778672605.0,24.0,-0.074219,3.804688,-9.648438,,,,,,,,,,
acc,1778672605.0,24.0,-0.074219,4.035156,-9.613281,,,,,,,,,,
acc,1778672605.0,24.0,-0.074219,3.882812,-9.996094,,,,,,,,,,
acc,1778672605.0,24.0,-0.152344,3.957031,-9.492188,,,,,,,,,,
acc,1778672605.0,24.0,-0.113281,3.691406,-9.839844,,,,,,,,,,
acc,1778672605.0,24.0,-0.191406,2.925781,-10.222656,,,,,,,,,,
acc,1778672605.0,24.0,-0.265625,2.769531,-9.878906,,,,,,,,,,
acc,1778672605.0,24.0,-0.304688,3.039062,-10.605469,,,,,,,,,,
acc,1778672605.0,24.0,-0.226562,2.503906,-9.878906,,,,,,,,,,
acc,1778672605.0,24.0,0.039062,3.230469,-9.878906,,,,,,,,,,
acc,1778672605.0,24.0,0.230469,3.921875,-9.875,,,,,,,,,,
acc,1778672605.0,24.0,0.230469,3.996094,-9.570312,,,,,,,,,,
acc,1778672605.0,24.0,0.0,3.34375,-9.835938,,,,,,,,,,
acc,1778672605.0,24.0,-0.113281,2.925781,-9.875,,,,,,,,,,
acc,1778672605.0,24.0,-0.035156,3.382812,-10.074219,,,,,,,,,,
acc,1778672605.0,24.0,-0.191406,3.269531,-9.796875,,,,,,,,,,
acc,1778672605.0,24.0,-0.035156,3.84375,-9.875,,,,,,,,,,
acc,1778672605.0,24.0,-0.113281,4.1875,-9.835938,,,,,,,,,,
acc,1778672605.0,24.0,-0.265625,3.5,-9.957031,,,,,,,,,,
acc,1778672605.0,24.0,-0.34375,4.074219,-9.761719,,,,,,,,,,
acc,1778672605.0,24.0,-0.265625,3.804688,-10.148438,,,,,,,,,,
acc,1778672605.0,24.0,-0.304688,3.765625,-9.835938,,,,,,,,,,
acc,1778672605.0,24.0,-0.417969,3.882812,-10.074219,,,,,,,,,,
acc,1778672605.0,24.0,-0.417969,3.535156,-10.21875,,,,,,,,,,
acc,1778672605.0,24.0,-0.457031,3.421875,-9.839844,,,,,,,,,,
acc,1778672605.0,24.0,-0.496094,3.230469,-10.179688,,,,,,,,,,
acc,1778672605.0,24.0,-0.535156,3.535156,-9.757812,,,,,,,,,,
acc,1778672605.0,24.0,-0.648438,3.5,-9.917969,,,,,,,,,,
acc,1778672605.0,24.0,-0.574219,3.652344,-9.957031,,,,,,,,,,
acc,1778672605.0,24.0,-0.535156,4.304688,-9.570312,,,,,,,,,,
acc,1778672605.0,24.0,-0.457031,4.339844,-9.914062,,,,,,,,,,
acc,1778672605.0,24.0,-0.417969,4.339844,-9.53125,,,,,,,,,,
acc,1778672605.0,24.0,-0.382812,3.921875,-9.652344,,,,,,,,,,
acc,1778672605.0,24.0,-0.417969,3.765625,-9.796875,,,,,,,,,,
acc,1778672605.0,24.0,-0.574219,3.726562,-9.761719,,,,,,,,,,
acc,1778672605.0,24.0,-0.457031,3.34375,-10.21875,,,,,,,,,,
acc,1778672605.0,24.0,-0.574219,3.308594,-9.570312,,,,,,,,,,
acc,1778672605.0,24.0,-0.726562,3.34375,-10.335938,,,,,,,,,,
acc,1778672605.0,24.0,-0.6875,3.5,-9.914062,,,,,,,,,,
acc,1778672605.0,24.0,-0.613281,3.804688,-9.457031,,,,,,,,,,
acc,1778672605.0,24.0,-0.457031,3.726562,-10.375,,,,,,,,,,
acc,1778672605.0,24.0,-0.457031,3.308594,-9.347656,,,,,,,,,,
acc,1778672605.0,24.0,-0.574219,3.460938,-9.917969,,,,,,,,,,
acc,1778672605.0,24.0,-0.535156,3.5,-10.183594,,,,,,,,,,
acc,1778672605.0,24.0,-0.382812,3.269531,-9.875,,,,,,,,,,
acc,1778672605.0,24.0,-0.496094,3.535156,-10.03125,,,,,,,,,,
acc,1778672605.0,24.0,-0.574219,3.5,-10.179688,,,,,,,,,,
acc,1778672605.0,24.0,-0.574219,3.726562,-10.035156,,,,,,,,,,
acc,1778672605.0,24.0,-0.496094,3.804688,-10.113281,,,,,,,,,,
acc,1778672605.0,24.0,-0.457031,3.84375,-10.21875,,,,,,,,,,
acc,1778672605.0,24.0,-0.574219,3.652344,-10.152344,,,,,,,,,,
acc,1778672605.0,24.0,-0.496094,4.035156,-9.835938,,,,,,,,,,
acc,1778672605.0,24.0,-0.457031,3.996094,-10.074219,,,,,,,,,,
acc,1778672605.0,24.0,-0.457031,4.148438,-9.613281,,,,,,,,,,
acc,1778672605.0,24.0,-0.457031,4.226562,-9.953125,,,,,,,,,,
acc,1778672605.0,24.0,-0.496094,3.921875,-9.996094,,,,,,,,,,
acc,1778672605.0,24.0,-0.304688,4.1875,-9.839844,,,,,,,,,,
acc,1778672605.0,24.0,-0.34375,3.84375,-9.953125,,,,,,,,,,
acc,1778672605.0,24.0,-0.457031,3.652344,-9.730469,,,,,,,,,,
acc,1778672605.0,24.0,-0.265625,3.535156,-9.878906,,,,,,,,,,
acc,1778672605.0,24.0,0.0,3.117188,-9.414062,,,,,,,,,,
acc,1778672605.0,24.0,0.0,3.5,-9.875,,,,,,,,,,
acc,1778672605.0,24.0,-0.152344,3.574219,-9.535156,,,,,,,,,,
acc,1778672605.0,24.0,-0.191406,3.613281,-9.839844,,,,,,,,,,
acc,1778672605.0,24.0,-0.074219,4.148438,-9.609375,,,,,,,,,,
acc,1778672605.0,24.0,-0.226562,4.1875,-9.574219,,,,,,,,,,
acc,1778672605.0,24.0,-0.34375,4.339844,-9.492188,,,,,,,,,,
acc,1778672605.0,24.0,-0.457031,4.378906,-9.648438,,,,,,,,,,
acc,1778672605.0,24.0,-0.496094,3.957031,-9.414062,,,,,,,,,,
acc,1778672605.0,24.0,-0.34375,3.574219,-9.6875,,,,,,,,,,
acc,1778672606.0,25.0,-0.382812,3.34375,-9.691406,,,,,,,,,,
acc,1778672606.0,25.0,-0.496094,3.613281,-9.691406,,,,,,,,,,
acc,1778672606.0,25.0,-0.574219,3.726562,-9.570312,,,,,,,,,,
acc,1778672606.0,25.0,-0.191406,3.574219,-9.875,,,,,,,,,,
acc,1778672606.0,25.0,0.0,3.882812,-9.414062,,,,,,,,,,
acc,1778672606.0,25.0,-0.226562,3.882812,-9.730469,,,,,,,,,,
acc,1778672606.0,25.0,-0.265625,3.765625,-9.730469,,,,,,,,,,
acc,1778672606.0,25.0,-0.457031,3.882812,-9.414062,,,,,,,,,,
acc,1778672606.0,25.0,-0.726562,4.265625,-9.570312,,,,,,,,,,
acc,1778672606.0,25.0,-0.726562,4.722656,-9.691406,,,,,,,,,,
acc,1778672606.0,25.0,-0.6875,4.878906,-9.375,,,,,,,,,,
acc,1778672606.0,25.0,-0.6875,4.761719,-9.230469,,,,,,,,,,
acc,1778672606.0,25.0,-0.726562,4.878906,-9.304688,,,,,,,,,,
acc,1778672606.0,25.0,-0.726562,5.261719,-9.375,,,,,,,,,,
acc,1778672606.0,25.0,-0.648438,5.300781,-9.148438,,,,,,,,,,
acc,1778672606.0,25.0,-0.457031,4.878906,-9.609375,,,,,,,,,,
acc,1778672606.0,25.0,-0.34375,4.339844,-9.453125,,,,,,,,,,
acc,1778672606.0,25.0,-0.152344,4.035156,-9.691406,,,,,,,,,,
acc,1778672606.0,25.0,-0.226562,3.535156,-9.648438,,,,,,,,,,
acc,1778672606.0,25.0,-0.304688,3.691406,-9.835938,,,,,,,,,,
acc,1778672606.0,25.0,-0.265625,3.765625,-9.914062,,,,,,,,,,
acc,1778672606.0,25.0,-0.265625,3.613281,-9.535156,,,,,,,,,,
acc,1778672606.0,25.0,-0.382812,4.304688,-9.613281,,,,,,,,,,
acc,1778672606.0,25.0,-0.226562,3.996094,-9.414062,,,,,,,,,,
acc,1778672606.0,25.0,-0.34375,3.921875,-9.570312,,,,,,,,,,
acc,1778672606.0,25.0,-0.382812,3.613281,-9.800781,,,,,,,,,,
acc,1778672606.0,25.0,-0.265625,3.308594,-9.761719,,,,,,,,,,
acc,1778672606.0,25.0,-0.265625,3.421875,-9.914062,,,,,,,,,,
acc,1778672606.0,25.0,-0.34375,3.460938,-9.875,,,,,,,,,,
acc,1778672606.0,25.0,-0.304688,3.382812,-9.917969,,,,,,,,,,
acc,1778672606.0,25.0,-0.113281,3.957031,-9.835938,,,,,,,,,,
acc,1778672606.0,25.0,-0.074219,4.304688,-9.453125,,,,,,,,,,
acc,1778672606.0,25.0,0.078125,4.839844,-9.375,,,,,,,,,,
acc,1778672606.0,25.0,0.039062,4.800781,-9.34375,,,,,,,,,,
acc,1778672606.0,25.0,-0.113281,4.074219,-9.417969,,,,,,,,,,
acc,1778672606.0,25.0,-0.074219,3.84375,-9.726562,,,,,,,,,,
acc,1778672606.0,25.0,-0.074219,3.765625,-9.609375,,,,,,,,,,
acc,1778672606.0,25.0,-0.226562,3.613281,-9.609375,,,,,,,,,,
acc,1778672606.0,25.0,-0.191406,3.804688,-9.492188,,,,,,,,,,
acc,1778672606.0,25.0,-0.191406,4.226562,-9.570312,,,,,,,,,,
acc,1778672606.0,25.0,-0.113281,3.996094,-9.691406,,,,,,,,,,
acc,1778672606.0,25.0,-0.226562,3.804688,-9.570312,,,,,,,,,,
acc,1778672606.0,25.0,-0.34375,3.691406,-9.726562,,,,,,,,,,
acc,1778672606.0,25.0,-0.304688,3.726562,-9.6875,,,,,,,,,,
acc,1778672606.0,25.0,-0.113281,4.074219,-9.34375,,,,,,,,,,
acc,1778672606.0,25.0,0.117188,4.265625,-9.308594,,,,,,,,,,
acc,1778672606.0,25.0,0.117188,4.609375,-8.925781,,,,,,,,,,
acc,1778672606.0,25.0,0.039062,4.226562,-9.109375,,,,,,,,,,
acc,1778672606.0,25.0,0.039062,4.074219,-9.269531,,,,,,,,,,
acc,1778672606.0,25.0,0.0,4.417969,-9.191406,,,,,,,,,,
acc,1778672606.0,25.0,-0.191406,4.148438,-9.492188,,,,,,,,,,
acc,1778672606.0,25.0,-0.074219,3.996094,-9.957031,,,,,,,,,,
acc,1778672606.0,25.0,-0.113281,3.5,-9.230469,,,,,,,,,,
acc,1778672606.0,25.0,-0.265625,3.382812,-10.070312,,,,,,,,,,
acc,1778672606.0,25.0,-0.34375,3.230469,-10.152344,,,,,,,,,,
acc,1778672606.0,25.0,-0.34375,3.152344,-9.800781,,,,,,,,,,
acc,1778672606.0,25.0,-0.496094,3.078125,-10.257812,,,,,,,,,,
acc,1778672606.0,25.0,-0.265625,3.117188,-9.917969,,,,,,,,,,
acc,1778672606.0,25.0,-0.226562,3.34375,-9.875,,,,,,,,,,
acc,1778672606.0,25.0,-0.34375,3.117188,-9.648438,,,,,,,,,,
acc,1778672606.0,25.0,-0.191406,3.460938,-10.070312,,,,,,,,,,
acc,1778672606.0,25.0,-0.191406,3.460938,-9.726562,,,,,,,,,,
acc,1778672606.0,25.0,-0.265625,3.421875,-10.109375,,,,,,,,,,
acc,1778672606.0,25.0,-0.34375,3.84375,-9.835938,,,,,,,,,,
acc,1778672606.0,25.0,-0.191406,3.882812,-9.957031,,,,,,,,,,
acc,1778672606.0,25.0,-0.191406,3.613281,-9.996094,,,,,,,,,,
acc,1778672606.0,25.0,-0.34375,3.574219,-9.796875,,,,,,,,,,
acc,1778672606.0,25.0,-0.417969,3.460938,-9.992188,,,,,,,,,,
acc,1778672606.0,25.0,-0.417969,3.460938,-10.03125,,,,,,,,,,
acc,1778672606.0,25.0,-0.382812,3.652344,-9.800781,,,,,,,,,,
acc,1778672606.0,25.0,-0.226562,3.804688,-10.179688,,,,,,,,,,
acc,1778672606.0,25.0,-0.226562,3.613281,-9.800781,,,,,,,,,,
acc,1778672606.0,25.0,-0.304688,3.421875,-9.914062,,,,,,,,,,
acc,1778672606.0,25.0,-0.226562,3.230469,-10.113281,,,,,,,,,,
acc,1778672606.0,25.0,-0.113281,3.117188,-9.730469,,,,,,,,,,
acc,1778672606.0,25.0,-0.457031,3.726562,-9.800781,,,,,,,,,,
acc,1778672606.0,25.0,-0.382812,3.613281,-10.109375,,,,,,,,,,
acc,1778672606.0,25.0,-0.304688,3.84375,-9.957031,,,,,,,,,,
acc,1778672606.0,25.0,-0.34375,4.035156,-9.691406,,,,,,,,,,
acc,1778672606.0,25.0,-0.226562,3.84375,-10.183594,,,,,,,,,,
acc,1778672606.0,25.0,-0.113281,3.613281,-9.730469,,,,,,,,,,
acc,1778672606.0,25.0,-0.265625,3.5,-9.726562,,,,,,,,,,
acc,1778672606.0,25.0,-0.152344,3.078125,-10.03125,,,,,,,,,,
acc,1778672606.0,25.0,-0.152344,3.117188,-9.609375,,,,,,,,,,
acc,1778672606.0,25.0,-0.382812,3.308594,-10.183594,,,,,,,,,,
acc,1778672606.0,25.0,-0.34375,3.078125,-9.914062,,,,,,,,,,
acc,1778672606.0,25.0,-0.265625,3.460938,-10.035156,,,,,,,,,,
acc,1778672606.0,25.0,-0.191406,3.652344,-9.957031,,,,,,,,,,
acc,1778672606.0,25.0,-0.152344,3.574219,-9.878906,,,,,,,,,,
acc,1778672606.0,25.0,-0.265625,3.765625,-9.800781,,,,,,,,,,
acc,1778672606.0,25.0,-0.265625,3.535156,-10.070312,,,,,,,,,,
acc,1778672606.0,25.0,-0.152344,3.34375,-9.730469,,,,,,,,,,
acc,1778672606.0,25.0,-0.265625,3.421875,-9.835938,,,,,,,,,,
acc,1778672606.0,25.0,-0.226562,3.382812,-9.992188,,,,,,,,,,
acc,1778672606.0,25.0,-0.152344,3.308594,-9.800781,,,,,,,,,,
acc,1778672606.0,25.0,-0.226562,3.535156,-9.757812,,,,,,,,,,
acc,1778672606.0,25.0,-0.382812,3.5,-9.835938,,,,,,,,,,
acc,1778672606.0,25.0,-0.417969,3.804688,-10.070312,,,,,,,,,,
acc,1778672606.0,25.0,-0.34375,4.1875,-9.730469,,,,,,,,,,
acc,1778672606.0,25.0,-0.417969,3.882812,-9.914062,,,,,,,,,,
acc,1778672606.0,25.0,-0.304688,3.652344,-9.457031,,,,,,,,,,
acc,1778672606.0,25.0,-0.152344,3.308594,-9.953125,,,,,,,,,,
acc,1778672606.0,25.0,-0.226562,3.078125,-9.609375,,,,,,,,,,
acc,1778672606.0,25.0,-0.34375,3.269531,-9.953125,,,,,,,,,,
acc,1778672606.0,25.0,-0.457031,3.5,-9.835938,,,,,,,,,,
acc,1778672606.0,25.0,-0.304688,3.691406,-9.992188,,,,,,,,,,
acc,1778672606.0,25.0,-0.226562,3.84375,-9.914062,,,,,,,,,,
acc,1778672606.0,25.0,-0.265625,3.726562,-9.652344,,,,,,,,,,
acc,1778672606.0,25.0,-0.382812,3.765625,-9.878906,,,,,,,,,,
acc,1778672606.0,25.0,-0.382812,3.574219,-9.570312,,,,,,,,,,
acc,1778672606.0,25.0,-0.304688,3.613281,-9.6875,,,,,,,,,,
acc,1778672606.0,25.0,-0.265625,3.804688,-9.800781,,,,,,,,,,
acc,1778672606.0,25.0,-0.382812,3.535156,-9.53125,,,,,,,,,,
acc,1778672606.0,25.0,-0.382812,3.765625,-9.796875,,,,,,,,,,
acc,1778672606.0,25.0,-0.265625,3.765625,-9.757812,,,,,,,,,,
acc,1778672606.0,25.0,-0.152344,3.726562,-9.875,,,,,,,,,,
acc,1778672606.0,25.0,-0.226562,3.765625,-9.839844,,,,,,,,,,
acc,1778672606.0,25.0,-0.226562,3.726562,-9.914062,,,,,,,,,,
acc,1778672606.0,25.0,-0.074219,3.5,-9.917969,,,,,,,,,,
acc,1778672606.0,25.0,0.039062,3.382812,-9.757812,,,,,,,,,,
acc,1778672606.0,25.0,0.0,3.574219,-9.761719,,,,,,,,,,
acc,1778672606.0,25.0,-0.265625,3.726562,-9.917969,,,,,,,,,,
acc,1778672606.0,25.0,-0.457031,3.382812,-9.757812,,,,,,,,,,
acc,1778672606.0,25.0,-0.34375,3.574219,-10.035156,,,,,,,,,,
acc,1778672606.0,25.0,-0.191406,3.5,-9.917969,,,,,,,,,,
acc,1778672606.0,25.0,-0.191406,3.804688,-9.953125,,,,,,,,,,
acc,1778672606.0,25.0,-0.226562,3.84375,-9.648438,,,,,,,,,,
acc,1778672606.0,25.0,-0.265625,3.726562,-9.996094,,,,,,,,,,
acc,1778672606.0,25.0,-0.304688,3.957031,-9.726562,,,,,,,,,,
acc,1778672607.0,26.0,-0.34375,3.84375,-9.730469,,,,,,,,,,
acc,1778672607.0,26.0,-0.304688,3.535156,-10.035156,,,,,,,,,,
acc,1778672607.0,26.0,-0.265625,3.191406,-9.648438,,,,,,,,,,
acc,1778672607.0,26.0,-0.191406,3.34375,-9.996094,,,,,,,,,,
acc,1778672607.0,26.0,-0.226562,3.5,-9.757812,,,,,,,,,,
acc,1778672607.0,26.0,-0.304688,3.382812,-9.796875,,,,,,,,,,
acc,1778672607.0,26.0,-0.226562,3.535156,-10.03125,,,,,,,,,,
acc,1778672607.0,26.0,-0.152344,3.765625,-9.652344,,,,,,,,,,
acc,1778672607.0,26.0,-0.191406,3.882812,-9.878906,,,,,,,,,,
acc,1778672607.0,26.0,-0.34375,3.613281,-9.953125,,,,,,,,,,
acc,1778672607.0,26.0,-0.457031,3.5,-10.03125,,,,,,,,,,
acc,1778672607.0,26.0,-0.613281,3.535156,-9.648438,,,,,,,,,,
acc,1778672607.0,26.0,-0.457031,3.421875,-9.957031,,,,,,,,,,
acc,1778672607.0,26.0,-0.226562,3.535156,-9.835938,,,,,,,,,,
acc,1778672607.0,26.0,-0.304688,3.84375,-9.417969,,,,,,,,,,
acc,1778672607.0,26.0,-0.382812,3.765625,-9.957031,,,,,,,,,,
acc,1778672607.0,26.0,-0.191406,3.574219,-9.691406,,,,,,,,,,
acc,1778672607.0,26.0,-0.304688,3.691406,-9.691406,,,,,,,,,,
acc,1778672607.0,26.0,-0.304688,3.613281,-9.796875,,,,,,,,,,
acc,1778672607.0,26.0,-0.113281,3.535156,-9.574219,,,,,,,,,,
acc,1778672607.0,26.0,-0.191406,3.691406,-9.757812,,,,,,,,,,
acc,1778672607.0,26.0,-0.382812,3.765625,-9.761719,,,,,,,,,,
acc,1778672607.0,26.0,-0.417969,3.921875,-9.996094,,,,,,,,,,
acc,1778672607.0,26.0,-0.34375,3.957031,-10.109375,,,,,,,,,,
acc,1778672607.0,26.0,-0.34375,3.921875,-9.957031,,,,,,,,,,
acc,1778672607.0,26.0,-0.34375,3.882812,-9.953125,,,,,,,,,,
acc,1778672607.0,26.0,-0.304688,3.996094,-9.917969,,,,,,,,,,
acc,1778672607.0,26.0,-0.304688,4.1875,-9.761719,,,,,,,,,,
acc,1778672607.0,26.0,-0.34375,4.148438,-9.839844,,,,,,,,,,
acc,1778672607.0,26.0,-0.191406,3.460938,-9.726562,,,,,,,,,,
acc,1778672607.0,26.0,-0.265625,3.308594,-9.917969,,,,,,,,,,
acc,1778672607.0,26.0,-0.382812,3.726562,-10.03125,,,,,,,,,,
acc,1778672607.0,26.0,-0.417969,3.804688,-9.917969,,,,,,,,,,
acc,1778672607.0,26.0,-0.265625,3.613281,-9.957031,,,,,,,,,,
acc,1778672607.0,26.0,-0.265625,4.035156,-9.996094,,,,,,,,,,
acc,1778672607.0,26.0,-0.191406,3.652344,-9.796875,,,,,,,,,,
acc,1778672607.0,26.0,-0.152344,3.535156,-9.914062,,,,,,,,,,
acc,1778672607.0,26.0,-0.304688,3.726562,-9.726562,,,,,,,,,,
acc,1778672607.0,26.0,-0.304688,3.574219,-9.492188,,,,,,,,,,
acc,1778672607.0,26.0,-0.191406,3.691406,-10.148438,,,,,,,,,,
acc,1778672607.0,26.0,-0.382812,3.535156,-9.375,,,,,,,,,,
acc,1778672607.0,26.0,-0.496094,3.535156,-10.109375,,,,,,,,,,
acc,1778672607.0,26.0,-0.382812,3.882812,-9.835938,,,,,,,,,,
acc,1778672607.0,26.0,-0.304688,4.417969,-10.035156,,,,,,,,,,
acc,1778672607.0,26.0,-0.382812,3.691406,-9.726562,,,,,,,,,,
acc,1778672607.0,26.0,-0.34375,3.882812,-9.953125,,,,,,,,,,
acc,1778672607.0,26.0,-0.265625,3.652344,-9.613281,,,,,,,,,,
acc,1778672607.0,26.0,-0.113281,3.078125,-9.648438,,,,,,,,,,
acc,1778672607.0,26.0,-0.113281,3.882812,-9.414062,,,,,,,,,,
acc,1778672607.0,26.0,-0.152344,3.652344,-9.800781,,,,,,,,,,
acc,1778672607.0,26.0,-0.191406,3.726562,-9.6875,,,,,,,,,,
acc,1778672607.0,26.0,-0.382812,4.226562,-9.53125,,,,,,,,,,
acc,1778672607.0,26.0,-0.417969,3.765625,-10.261719,,,,,,,,,,
acc,1778672607.0,26.0,-0.304688,3.652344,-9.457031,,,,,,,,,,
acc,1778672607.0,26.0,-0.265625,3.84375,-9.917969,,,,,,,,,,
acc,1778672607.0,26.0,-0.226562,3.84375,-9.875,,,,,,,,,,
acc,1778672607.0,26.0,-0.265625,3.882812,-9.535156,,,,,,,,,,
acc,1778672607.0,26.0,-0.417969,3.804688,-9.761719,,,,,,,,,,
acc,1778672607.0,26.0,-0.382812,3.882812,-9.914062,,,,,,,,,,
acc,1778672607.0,26.0,-0.304688,3.691406,-9.800781,,,,,,,,,,
acc,1778672607.0,26.0,-0.34375,3.421875,-9.839844,,,,,,,,,,
acc,1778672607.0,26.0,-0.226562,3.613281,-9.992188,,,,,,,,,,
acc,1778672607.0,26.0,-0.457031,3.691406,-9.917969,,,,,,,,,,
acc,1778672607.0,26.0,-0.265625,3.574219,-9.800781,,,,,,,,,,
acc,1778672607.0,26.0,-0.265625,3.765625,-9.992188,,,,,,,,,,
acc,1778672607.0,26.0,-0.304688,3.535156,-9.417969,,,,,,,,,,
acc,1778672607.0,26.0,-0.34375,3.574219,-10.152344,,,,,,,,,,
acc,1778672607.0,26.0,-0.382812,3.804688,-9.726562,,,,,,,,,,
acc,1778672607.0,26.0,-0.417969,3.613281,-9.875,,,,,,,,,,
acc,1778672607.0,26.0,-0.34375,3.804688,-10.035156,,,,,,,,,,
acc,1778672607.0,26.0,-0.535156,3.726562,-9.953125,,,,,,,,,,
acc,1778672607.0,26.0,-0.535156,3.574219,-9.917969,,,,,,,,,,
acc,1778672607.0,26.0,-0.382812,3.269531,-9.757812,,,,,,,,,,
acc,1778672607.0,26.0,-0.417969,3.613281,-9.691406,,,,,,,,,,
acc,1778672607.0,26.0,-0.417969,3.691406,-9.796875,,,,,,,,,,
acc,1778672607.0,26.0,-0.34375,3.5,-9.574219,,,,,,,,,,
acc,1778672607.0,26.0,-0.34375,3.5,-9.53125,,,,,,,,,,
acc,1778672607.0,26.0,-0.34375,3.613281,-9.757812,,,,,,,,,,
acc,1778672607.0,26.0,-0.34375,3.804688,-9.652344,,,,,,,,,,
acc,1778672607.0,26.0,-0.457031,4.113281,-9.835938,,,,,,,,,,
acc,1778672607.0,26.0,-0.535156,3.613281,-9.648438,,,,,,,,,,
acc,1778672607.0,26.0,-0.226562,3.269531,-9.914062,,,,,,,,,,
acc,1778672607.0,26.0,-0.152344,3.152344,-9.574219,,,,,,,,,,
acc,1778672607.0,26.0,-0.304688,3.460938,-9.726562,,,,,,,,,,
acc,1778672607.0,26.0,-0.457031,3.882812,-9.835938,,,,,,,,,,
acc,1778672607.0,26.0,-0.226562,3.613281,-9.953125,,,,,,,,,,
acc,1778672607.0,26.0,-0.226562,3.957031,-9.492188,,,,,,,,,,
acc,1778672607.0,26.0,-0.226562,3.691406,-10.035156,,,,,,,,,,
acc,1778672607.0,26.0,-0.074219,3.460938,-9.761719,,,,,,,,,,
acc,1778672607.0,26.0,-0.152344,3.726562,-9.265625,,,,,,,,,,
acc,1778672607.0,26.0,-0.304688,3.574219,-10.414062,,,,,,,,,,
acc,1778672607.0,26.0,-0.191406,3.5,-9.613281,,,,,,,,,,
acc,1778672607.0,26.0,-0.304688,3.308594,-9.839844,,,,,,,,,,
acc,1778672607.0,26.0,-0.304688,3.382812,-9.957031,,,,,,,,,,
acc,1778672607.0,26.0,-0.191406,3.382812,-9.761719,,,,,,,,,,
acc,1778672607.0,26.0,-0.152344,3.535156,-9.875,,,,,,,,,,
acc,1778672607.0,26.0,-0.382812,3.921875,-9.839844,,,,,,,,,,
acc,1778672607.0,26.0,-0.496094,3.921875,-9.761719,,,,,,,,,,
acc,1778672607.0,26.0,-0.34375,3.726562,-9.992188,,,,,,,,,,
acc,1778672607.0,26.0,-0.191406,3.84375,-9.652344,,,,,,,,,,
acc,1778672607.0,26.0,-0.265625,3.765625,-9.875,,,,,,,,,,
acc,1778672607.0,26.0,-0.34375,3.726562,-9.691406,,,,,,,,,,
acc,1778672607.0,26.0,-0.34375,3.5,-9.730469,,,,,,,,,,
acc,1778672607.0,26.0,-0.265625,3.34375,-9.796875,,,,,,,,,,
acc,1778672607.0,26.0,-0.191406,3.613281,-9.570312,,,,,,,,,,
acc,1778672607.0,26.0,-0.191406,3.574219,-9.953125,,,,,,,,,,
acc,1778672607.0,26.0,-0.074219,3.765625,-9.574219,,,,,,,,,,
acc,1778672607.0,26.0,-0.226562,3.613281,-9.691406,,,,,,,,,,
acc,1778672607.0,26.0,-0.152344,3.535156,-9.992188,,,,,,,,,,
acc,1778672607.0,26.0,-0.113281,3.421875,-9.570312,,,,,,,,,,
acc,1778672607.0,26.0,-0.34375,3.882812,-9.574219,,,,,,,,,,
acc,1778672607.0,26.0,-0.226562,3.765625,-9.839844,,,,,,,,,,
acc,1778672607.0,26.0,-0.113281,3.921875,-9.34375,,,,,,,,,,
acc,1778672607.0,26.0,-0.113281,3.957031,-9.757812,,,,,,,,,,
acc,1778672607.0,26.0,-0.113281,3.996094,-9.492188,,,,,,,,,,
acc,1778672607.0,26.0,0.0,3.957031,-9.835938,,,,,,,,,,
acc,1778672607.0,26.0,-0.191406,3.84375,-9.535156,,,,,,,,,,
acc,1778672607.0,26.0,-0.152344,3.882812,-9.992188,,,,,,,,,,
acc,1778672607.0,26.0,-0.152344,3.84375,-9.53125,,,,,,,,,,
acc,1778672607.0,26.0,-0.226562,3.726562,-9.875,,,,,,,,,,
acc,1778672607.0,26.0,-0.382812,3.574219,-9.796875,,,,,,,,,,
acc,1778672607.0,26.0,-0.34375,3.382812,-9.800781,,,,,,,,,,
acc,1778672607.0,26.0,-0.417969,3.726562,-9.835938,,,,,,,,,,
acc,1778672607.0,26.0,-0.34375,3.574219,-9.996094,,,,,,,,,,
acc,1778672607.0,26.0,-0.304688,3.574219,-9.875,,,,,,,,,,
acc,1778672607.0,26.0,-0.34375,3.765625,-9.761719,,,,,,,,,,
acc,1778672607.0,26.0,-0.382812,3.765625,-10.152344,,,,,,,,,,
acc,1778672607.0,26.0,-0.457031,3.882812,-9.730469,,,,,,,,,,
acc,1778672608.0,27.0,-0.382812,3.804688,-9.878906,,,,,,,,,,
acc,1778672608.0,27.0,-0.226562,3.652344,-9.875,,,,,,,,,,
acc,1778672608.0,27.0,-0.382812,3.460938,-9.492188,,,,,,,,,,
acc,1778672608.0,27.0,-0.417969,3.308594,-9.757812,,,,,,,,,,
acc,1778672608.0,27.0,-0.265625,3.691406,-9.691406,,,,,,,,,,
acc,1778672608.0,27.0,-0.265625,3.765625,-9.648438,,,,,,,,,,
acc,1778672608.0,27.0,-0.34375,3.726562,-9.574219,,,,,,,,,,
acc,1778672608.0,27.0,-0.191406,3.574219,-9.992188,,,,,,,,,,
acc,1778672608.0,27.0,-0.191406,3.5,-9.457031,,,,,,,,,,
acc,1778672608.0,27.0,-0.265625,3.613281,-9.957031,,,,,,,,,,
acc,1778672608.0,27.0,-0.304688,3.382812,-9.917969,,,,,,,,,,
acc,1778672608.0,27.0,-0.265625,3.957031,-9.496094,,,,,,,,,,
acc,1778672608.0,27.0,-0.226562,3.882812,-10.109375,,,,,,,,,,
acc,1778672608.0,27.0,-0.191406,3.957031,-9.34375,,,,,,,,,,
acc,1778672608.0,27.0,-0.265625,4.035156,-9.957031,,,,,,,,,,
acc,1778672608.0,27.0,-0.304688,4.113281,-9.957031,,,,,,,,,,
acc,1778672608.0,27.0,-0.34375,3.652344,-10.074219,,,,,,,,,,
acc,1778672608.0,27.0,-0.191406,3.84375,-9.6875,,,,,,,,,,
acc,1778672608.0,27.0,-0.152344,3.84375,-9.875,,,,,,,,,,
acc,1778672608.0,27.0,-0.304688,4.1875,-9.652344,,,,,,,,,,
acc,1778672608.0,27.0,-0.457031,3.921875,-9.652344,,,,,,,,,,
acc,1778672608.0,27.0,-0.304688,4.304688,-10.335938,,,,,,,,,,
acc,1778672608.0,27.0,-0.226562,4.074219,-9.796875,,,,,,,,,,
acc,1778672608.0,27.0,-0.226562,3.613281,-10.109375,,,,,,,,,,
acc,1778672608.0,27.0,-0.417969,3.882812,-9.835938,,,,,,,,,,
acc,1778672608.0,27.0,-0.457031,3.691406,-9.957031,,,,,,,,,,
acc,1778672608.0,27.0,-0.382812,3.574219,-9.957031,,,,,,,,,,
acc,1778672608.0,27.0,-0.304688,3.230469,-9.574219,,,,,,,,,,
acc,1778672608.0,27.0,-0.417969,3.308594,-9.992188,,,,,,,,,,
acc,1778672608.0,27.0,-0.535156,3.230469,-9.457031,,,,,,,,,,
acc,1778672608.0,27.0,-0.417969,3.421875,-9.726562,,,,,,,,,,
acc,1778672608.0,27.0,-0.417969,3.804688,-9.996094,,,,,,,,,,
acc,1778672608.0,27.0,-0.457031,3.382812,-9.53125,,,,,,,,,,
acc,1778672608.0,27.0,-0.34375,3.652344,-9.992188,,,,,,,,,,
acc,1778672608.0,27.0,-0.304688,3.652344,-9.761719,,,,,,,,,,
acc,1778672608.0,27.0,-0.074219,3.613281,-9.796875,,,,,,,,,,
acc,1778672608.0,27.0,-0.113281,3.5,-9.730469,,,,,,,,,,
acc,1778672608.0,27.0,-0.191406,3.535156,-9.535156,,,,,,,,,,
acc,1778672608.0,27.0,-0.226562,3.535156,-9.730469,,,,,,,,,,
acc,1778672608.0,27.0,-0.113281,3.460938,-9.914062,,,,,,,,,,
acc,1778672608.0,27.0,0.0,3.691406,-9.496094,,,,,,,,,,
acc,1778672608.0,27.0,-0.191406,3.691406,-9.914062,,,,,,,,,,
acc,1778672608.0,27.0,-0.191406,3.382812,-9.761719,,,,,,,,,,
acc,1778672608.0,27.0,-0.113281,3.535156,-9.53125,,,,,,,,,,
acc,1778672608.0,27.0,-0.265625,3.5,-9.652344,,,,,,,,,,
acc,1778672608.0,27.0,-0.152344,3.5,-9.835938,,,,,,,,,,
acc,1778672608.0,27.0,-0.074219,3.84375,-9.761719,,,,,,,,,,
acc,1778672608.0,27.0,-0.191406,3.921875,-9.835938,,,,,,,,,,
acc,1778672608.0,27.0,-0.152344,3.652344,-10.109375,,,,,,,,,,
acc,1778672608.0,27.0,-0.265625,3.804688,-9.953125,,,,,,,,,,
acc,1778672608.0,27.0,-0.34375,4.113281,-10.148438,,,,,,,,,,
acc,1778672608.0,27.0,-0.382812,3.574219,-9.796875,,,,,,,,,,
acc,1778672608.0,27.0,-0.152344,3.5,-9.992188,,,,,,,,,,
acc,1778672608.0,27.0,-0.226562,3.382812,-9.835938,,,,,,,,,,
acc,1778672608.0,27.0,-0.191406,3.460938,-9.726562,,,,,,,,,,
acc,1778672608.0,27.0,-0.226562,3.574219,-10.035156,,,,,,,,,,
acc,1778672608.0,27.0,-0.226562,3.574219,-9.496094,,,,,,,,,,
acc,1778672608.0,27.0,-0.191406,3.921875,-9.875,,,,,,,,,,
acc,1778672608.0,27.0,-0.226562,3.996094,-10.109375,,,,,,,,,,
acc,1778672608.0,27.0,-0.457031,3.765625,-9.839844,,,,,,,,,,
acc,1778672608.0,27.0,-0.304688,3.460938,-9.957031,,,,,,,,,,
acc,1778672608.0,27.0,-0.191406,3.308594,-10.070312,,,,,,,,,,
acc,1778672608.0,27.0,-0.191406,3.269531,-9.570312,,,,,,,,,,
