sensor,time,t,ax,ay,az,wx,wy,wz,lat,lon,alt,v_kmh,satellites,x,y
acc,1778672777.0,196.0,-0.035156,0.203125,-9.796875,,,,,,,,,,
acc,1778672777.0,196.0,-0.074219,0.203125,-9.835938,,,,,,,,,,
acc,1778672777.0,196.0,-0.074219,0.203125,-9.800781,,,,,,,,,,
acc,1778672777.0,196.0,-0.074219,0.203125,-9.800781,,,,,,,,,,
acc,1778672777.0,196.0,-0.035156,0.203125,-9.796875,,,,,,,,,,
acc,1778672777.0,196.0,-0.074219,0.203125,-9.800781,,,,,,,,,,
acc,1778672777.0,196.0,-0.074219,0.203125,-9.800781,,,,,,,,,,
acc,1778672777.0,196.0,-0.074219,0.203125,-9.800781,,,,,,,,,,
acc,1778672777.0,196.0,-0.074219,0.164062,-9.800781,,,,,,,,,,
acc,1778672777.0,196.0,-0.074219,0.203125,-9.835938,,,,,,,,,,
acc,1778672777.0,196.0,-0.074219,0.203125,-9.800781,,,,,,,,,,
acc,1778672777.0,196.0,-0.113281,0.203125,-9.839844,,,,,,,,,,
acc,1778672777.0,196.0,-0.074219,0.203125,-9.800781,,,,,,,,,,
acc,1778672777.0,196.0,-0.074219,0.203125,-9.757812,,,,,,,,,,
acc,1778672777.0,196.0,-0.074219,0.164062,-9.800781,,,,,,,,,,
acc,1778672777.0,196.0,-0.074219,0.203125,-9.800781,,,,,,,,,,
acc,1778672777.0,196.0,-0.113281,0.164062,-9.839844,,,,,,,,,,
acc,1778672777.0,196.0,-0.113281,0.203125,-9.796875,,,,,,,,,,
acc,1778672777.0,196.0,-0.074219,0.203125,-9.800781,,,,,,,,,,
acc,1778672777.0,196.0,-0.074219,0.203125,-9.800781,,,,,,,,,,
acc,1778672777.0,196.0,-0.074219,0.164062,-9.835938,,,,,,,,,,
acc,1778672777.0,196.0,-0.074219,0.164062,-9.800781,,,,,,,,,,
acc,1778672777.0,196.0,-0.113281,0.164062,-9.839844,,,,,,,,,,
acc,1778672777.0,196.0,-0.074219,0.164062,-9.835938,,,,,,,,,,
acc,1778672777.0,196.0,-0.074219,0.164062,-9.757812,,,,,,,,,,
acc,1778672777.0,196.0,-0.074219,0.164062,-9.800781,,,,,,,,,,
acc,1778672777.0,196.0,-0.113281,0.164062,-9.796875,,,,,,,,,,
acc,1778672777.0,196.0,-0.074219,0.164062,-9.800781,,,,,,,,,,
acc,1778672777.0,196.0,-0.074219,0.164062,-9.800781,,,,,,,,,,
acc,1778672777.0,196.0,-0.074219,0.164062,-9.800781,,,,,,,,,,
acc,1778672777.0,196.0,-0.074219,0.164062,-9.800781,,,,,,,,,,
acc,1778672777.0,196.0,-0.074219,0.164062,-9.757812,,,,,,,,,,
acc,1778672777.0,196.0,-0.074219,0.203125,-9.800781,,,,,,,,,,
acc,1778672777.0,196.0,-0.074219,0.164062,-9.835938,,,,,,,,,,
acc,1778672777.0,196.0,-0.074219,0.164062,-9.800781,,,,,,,,,,
acc,1778672777.0,196.0,-0.035156,0.164062,-9.796875,,,,,,,,,,
acc,1778672777.0,196.0,-0.074219,0.164062,-9.800781,,,,,,,,,,
acc,1778672777.0,196.0,-0.074219,0.164062,-9.800781,,,,,,,,,,
acc,1778672777.0,196.0,-0.074219,0.164062,-9.800781,,,,,,,,,,
acc,1778672777.0,196.0,-0.035156,0.203125,-9.796875,,,,,,,,,,
acc,1778672777.0,196.0,-0.074219,0.164062,-9.835938,,,,,,,,,,
acc,1778672777.0,196.0,-0.074219,0.203125,-9.835938,,,,,,,,,,
acc,1778672777.0,196.0,-0.074219,0.203125,-9.835938,,,,,,,,,,
acc,1778672777.0,196.0,-0.074219,0.164062,-9.800781,,,,,,,,,,
acc,1778672777.0,196.0,-0.035156,0.164062,-9.761719,,,,,,,,,,
acc,1778672777.0,196.0,-0.074219,0.164062,-9.800781,,,,,,,,,,
acc,1778672777.0,196.0,-0.074219,0.203125,-9.835938,,,,,,,,,,
acc,1778672777.0,196.0,-0.074219,0.164062,-9.800781,,,,,,,,,,
acc,1778672777.0,196.0,-0.074219,0.203125,-9.835938,,,,,,,,,,
acc,1778672777.0,196.0,-0.074219,0.164062,-9.835938,,,,,,,,,,
acc,1778672777.0,196.0,-0.074219,0.203125,-9.800781,,,,,,,,,,
acc,1778672777.0,196.0,-0.074219,0.203125,-9.800781,,,,,,,,,,
acc,1778672777.0,196.0,-0.074219,0.164062,-9.800781,,,,,,,,,,
acc,1778672777.0,196.0,-0.074219,0.203125,-9.800781,,,,,,,,,,
acc,1778672777.0,196.0,-0.113281,0.203125,-9.796875,,,,,,,,,,
acc,1778672777.0,196.0,-0.074219,0.203125,-9.800781,,,,,,,,,,
acc,1778672777.0,196.0,-0.074219,0.203125,-9.835938,,,,,,,,,,
acc,1778672777.0,196.0,-0.074219,0.203125,-9.800781,,,,,,,,,,
acc,1778672777.0,196.0,-0.074219,0.164062,-9.835938,,,,,,,,,,
acc,1778672777.0,196.0,-0.074219,0.203125,-9.800781,,,,,,,,,,
acc,1778672777.0,196.0,-0.074219,0.203125,-9.800781,,,,,,,,,,
acc,1778672777.0,196.0,-0.113281,0.203125,-9.796875,,,,,,,,,,
acc,1778672777.0,196.0,-0.074219,0.164062,-9.800781,,,,,,,,,,
acc,1778672777.0,196.0,-0.074219,0.203125,-9.800781,,,,,,,,,,
acc,1778672777.0,196.0,-0.074219,0.203125,-9.800781,,,,,,,,,,
acc,1778672777.0,196.0,-0.113281,0.164062,-9.796875,,,,,,,,,,
acc,1778672777.0,196.0,-0.074219,0.164062,-9.800781,,,,,,,,,,
acc,1778672777.0,196.0,-0.074219,0.164062,-9.800781,,,,,,,,,,
acc,1778672777.0,196.0,-0.074219,0.164062,-9.800781,,,,,,,,,,
acc,1778672777.0,196.0,-0.074219,0.203125,-9.757812,,,,,,,,,,
acc,1778672777.0,196.0,-0.074219,0.164062,-9.757812,,,,,,,,,,
acc,1778672777.0,196.0,-0.074219,0.164062,-9.757812,,,,,,,,,,
acc,1778672777.0,196.0,-0.074219,0.164062,-9.800781,,,,,,,,,,
acc,1778672777.0,196.0,-0.074219,0.164062,-9.800781,,,,,,,,,,
acc,1778672777.0,196.0,-0.074219,0.164062,-9.835938,,,,,,,,,,
acc,1778672777.0,196.0,-0.074219,0.164062,-9.800781,,,,,,,,,,
acc,1778672777.0,196.0,-0.074219,0.164062,-9.757812,,,,,,,,,,
acc,1778672777.0,196.0,-0.074219,0.164062,-9.800781,,,,,,,,,,
acc,1778672777.0,196.0,-0.074219,0.164062,-9.835938,,,,,,,,,,
acc,1778672777.0,196.0,-0.074219,0.164062,-9.800781,,,,,,,,,,
acc,1778672777.0,196.0,-0.074219,0.164062,-9.800781,,,,,,,,,,
acc,1778672777.0,196.0,-0.035156,0.164062,-9.796875,,,,,,,,,,
acc,1778672777.0,196.0,-0.074219,0.164062,-9.757812,,,,,,,,,,
acc,1778672777.0,196.0,-0.074219,0.164062,-9.757812,,,,,,,,,,
acc,1778672777.0,196.0,-0.074219,0.164062,-9.800781,,,,,,,,,,
acc,1778672777.0,196.0,-0.074219,0.164062,-9.835938,,,,,,,,,,
acc,1778672777.0,196.0,-0.074219,0.203125,-9.800781,,,,,,,,,,
acc,1778672777.0,196.0,-0.074219,0.164062,-9.800781,,,,,,,,,,
acc,1778672777.0,196.0,-0.074219,0.164062,-9.800781,,,,,,,,,,
acc,1778672777.0,196.0,-0.074219,0.164062,-9.757812,,,,,,,,,,
acc,1778672777.0,196.0,-0.074219,0.164062,-9.800781,,,,,,,,,,
acc,1778672777.0,196.0,-0.035156,0.164062,-9.796875,,,,,,,,,,
acc,1778672777.0,196.0,-0.074219,0.164062,-9.800781,,,,,,,,,,
acc,1778672777.0,196.0,-0.074219,0.203125,-9.800781,,,,,,,,,,
acc,1778672777.0,196.0,-0.074219,0.164062,-9.800781,,,,,,,,,,
acc,1778672777.0,196.0,-0.074219,0.164062,-9.800781,,,,,,,,,,
acc,1778672777.0,196.0,-0.074219,0.203125,-9.800781,,,,,,,,,,
acc,1778672777.0,196.0,-0.074219,0.164062,-9.835938,,,,,,,,,,
acc,1778672777.0,196.0,-0.074219,0.203125,-9.800781,,,,,,,,,,
acc,1778672777.0,196.0,-0.074219,0.203125,-9.800781,,,,,,,,,,
acc,1778672777.0,196.0,-0.074219,0.203125,-9.800781,,,,,,,,,,
acc,1778672777.0,196.0,-0.074219,0.203125,-9.800781,,,,,,,,,,
acc,1778672777.0,196.0,-0.074219,0.203125,-9.800781,,,,,,,,,,
acc,1778672777.0,196.0,-0.074219,0.203125,-9.800781,,,,,,,,,,
acc,1778672777.0,196.0,-0.074219,0.203125,-9.800781,,,,,,,,,,
acc,1778672777.0,196.0,-0.113281,0.164062,-9.796875,,,,,,,,,,
acc,1778672777.0,196.0,-0.074219,0.203125,-9.800781,,,,,,,,,,
acc,1778672777.0,196.0,-0.074219,0.164062,-9.800781,,,,,,,,,,
acc,1778672777.0,196.0,-0.074219,0.164062,-9.835938,,,,,,,,,,
acc,1778672777.0,196.0,-0.074219,0.203125,-9.800781,,,,,,,,,,
acc,1778672777.0,196.0,-0.074219,0.164062,-9.800781,,,,,,,,,,
acc,1778672777.0,196.0,-0.074219,0.203125,-9.800781,,,,,,,,,,
acc,1778672777.0,196.0,-0.074219,0.203125,-9.800781,,,,,,,,,,
acc,1778672777.0,196.0,-0.074219,0.164062,-9.800781,,,,,,,,,,
acc,1778672777.0,196.0,-0.113281,0.164062,-9.796875,,,,,,,,,,
acc,1778672777.0,196.0,-0.074219,0.164062,-9.835938,,,,,,,,,,
acc,1778672777.0,196.0,-0.074219,0.164062,-9.800781,,,,,,,,,,
acc,1778672777.0,196.0,-0.074219,0.164062,-9.835938,,,,,,,,,,
acc,1778672777.0,196.0,-0.074219,0.164062,-9.835938,,,,,,,,,,
acc,1778672777.0,196.0,-0.074219,0.164062,-9.835938,,,,,,,,,,
acc,1778672777.0,196.0,-0.074219,0.164062,-9.835938,,,,,,,,,,
acc,1778672777.0,196.0,-0.074219,0.164062,-9.800781,,,,,,,,,,
acc,1778672777.0,196.0,-0.074219,0.164062,-9.800781,,,,,,,,,,
acc,1778672777.0,196.0,-0.035156,0.164062,-9.839844,,,,,,,,,,
acc,1778672777.0,196.0,-0.074219,0.203125,-9.800781,,,,,,,,,,
acc,1778672777.0,196.0,-0.074219,0.203125,-9.800781,,,,,,,,,,
acc,1778672777.0,196.0,-0.074219,0.164062,-9.757812,,,,,,,,,,
acc,1778672778.0,197.0,-0.074219,0.164062,-9.800781,,,,,,,,,,
acc,1778672778.0,197.0,-0.074219,0.203125,-9.800781,,,,,,,,,,
acc,1778672778.0,197.0,-0.035156,0.164062,-9.796875,,,,,,,,,,
acc,1778672778.0,197.0,-0.074219,0.164062,-9.800781,,,,,,,,,,
acc,1778672778.0,197.0,-0.074219,0.164062,-9.835938,,,,,,,,,,
acc,1778672778.0,197.0,-0.074219,0.203125,-9.800781,,,,,,,,,,
acc,1778672778.0,197.0,-0.074219,0.164062,-9.757812,,,,,,,,,,
acc,1778672778.0,197.0,-0.074219,0.164062,-9.800781,,,,,,,,,,
acc,1778672778.0,197.0,-0.074219,0.203125,-9.800781,,,,,,,,,,
acc,1778672778.0,197.0,-0.113281,0.203125,-9.796875,,,,,,,,,,
acc,1778672778.0,197.0,-0.035156,0.203125,-9.796875,,,,,,,,,,
acc,1778672778.0,197.0,-0.035156,0.203125,-9.796875,,,,,,,,,,
acc,1778672778.0,197.0,-0.074219,0.164062,-9.800781,,,,,,,,,,
acc,1778672778.0,197.0,-0.074219,0.203125,-9.800781,,,,,,,,,,
acc,1778672778.0,197.0,-0.074219,0.164062,-9.800781,,,,,,,,,,
acc,1778672778.0,197.0,-0.074219,0.164062,-9.835938,,,,,,,,,,
acc,1778672778.0,197.0,-0.074219,0.164062,-9.800781,,,,,,,,,,
acc,1778672778.0,197.0,-0.074219,0.164062,-9.800781,,,,,,,,,,
acc,1778672778.0,197.0,-0.074219,0.203125,-9.800781,,,,,,,,,,
acc,1778672778.0,197.0,-0.074219,0.164062,-9.800781,,,,,,,,,,
acc,1778672778.0,197.0,-0.074219,0.164062,-9.835938,,,,,,,,,,
acc,1778672778.0,197.0,-0.074219,0.203125,-9.835938,,,,,,,,,,
acc,1778672778.0,197.0,-0.074219,0.203125,-9.800781,,,,,,,,,,
acc,1778672778.0,197.0,-0.074219,0.164062,-9.835938,,,,,,,,,,
acc,1778672778.0,197.0,-0.074219,0.164062,-9.800781,,,,,,,,,,
acc,1778672778.0,197.0,-0.113281,0.164062,-9.761719,,,,,,,,,,
acc,1778672778.0,197.0,-0.074219,0.164062,-9.800781,,,,,,,,,,
acc,1778672778.0,197.0,-0.074219,0.164062,-9.800781,,,,,,,,,,
acc,1778672778.0,197.0,-0.074219,0.203125,-9.835938,,,,,,,,,,
acc,1778672778.0,197.0,-0.074219,0.164062,-9.800781,,,,,,,,,,
acc,1778672778.0,197.0,-0.074219,0.164062,-9.800781,,,,,,,,,,
acc,1778672778.0,197.0,-0.074219,0.128906,-9.796875,,,,,,,,,,
acc,1778672778.0,197.0,-0.113281,0.164062,-9.839844,,,,,,,,,,
acc,1778672778.0,197.0,-0.074219,0.164062,-9.800781,,,,,,,,,,
acc,1778672778.0,197.0,-0.074219,0.164062,-9.800781,,,,,,,,,,
acc,1778672778.0,197.0,-0.074219,0.164062,-9.835938,,,,,,,,,,
acc,1778672778.0,197.0,-0.074219,0.164062,-9.800781,,,,,,,,,,
acc,1778672778.0,197.0,-0.074219,0.164062,-9.800781,,,,,,,,,,
acc,1778672778.0,197.0,-0.074219,0.203125,-9.800781,,,,,,,,,,
acc,1778672778.0,197.0,-0.074219,0.164062,-9.800781,,,,,,,,,,
acc,1778672778.0,197.0,-0.035156,0.164062,-9.796875,,,,,,,,,,
acc,1778672778.0,197.0,-0.074219,0.164062,-9.800781,,,,,,,,,,
acc,1778672778.0,197.0,-0.074219,0.164062,-9.757812,,,,,,,,,,
acc,1778672778.0,197.0,-0.074219,0.164062,-9.800781,,,,,,,,,,
acc,1778672778.0,197.0,-0.074219,0.164062,-9.800781,,,,,,,,,,
acc,1778672778.0,197.0,-0.074219,0.203125,-9.800781,,,,,,,,,,
acc,1778672778.0,197.0,-0.074219,0.164062,-9.800781,,,,,,,,,,
acc,1778672778.0,197.0,-0.074219,0.203125,-9.800781,,,,,,,,,,
acc,1778672778.0,197.0,-0.074219,0.203125,-9.835938,,,,,,,,,,
acc,1778672778.0,197.0,-0.074219,0.203125,-9.835938,,,,,,,,,,
acc,1778672778.0,197.0,-0.035156,0.203125,-9.761719,,,,,,,,,,
acc,1778672778.0,197.0,-0.074219,0.203125,-9.835938,,,,,,,,,,
acc,1778672778.0,197.0,-0.074219,0.203125,-9.757812,,,,,,,,,,
acc,1778672778.0,197.0,-0.035156,0.203125,-9.796875,,,,,,,,,,
acc,1778672778.0,197.0,-0.074219,0.203125,-9.800781,,,,,,,,,,
acc,1778672778.0,197.0,-0.074219,0.203125,-9.800781,,,,,,,,,,
acc,1778672778.0,197.0,-0.074219,0.203125,-9.800781,,,,,,,,,,
acc,1778672778.0,197.0,-0.074219,0.203125,-9.800781,,,,,,,,,,
acc,1778672778.0,197.0,-0.074219,0.203125,-9.800781,,,,,,,,,,
acc,1778672778.0,197.0,-0.074219,0.203125,-9.835938,,,,,,,,,,
acc,1778672778.0,197.0,-0.074219,0.203125,-9.800781,,,,,,,,,,
acc,1778672778.0,197.0,-0.074219,0.203125,-9.800781,,,,,,,,,,
acc,1778672778.0,197.0,-0.074219,0.164062,-9.800781,,,,,,,,,,
acc,1778672778.0,197.0,-0.035156,0.203125,-9.796875,,,,,,,,,,
acc,1778672778.0,197.0,-0.074219,0.203125,-9.800781,,,,,,,,,,
acc,1778672778.0,197.0,-0.074219,0.203125,-9.800781,,,,,,,,,,
acc,1778672778.0,197.0,-0.074219,0.203125,-9.835938,,,,,,,,,,
acc,1778672778.0,197.0,-0.074219,0.164062,-9.835938,,,,,,,,,,
acc,1778672778.0,197.0,-0.074219,0.203125,-9.800781,,,,,,,,,,
acc,1778672778.0,197.0,-0.074219,0.203125,-9.835938,,,,,,,,,,
acc,1778672778.0,197.0,-0.074219,0.164062,-9.757812,,,,,,,,,,
acc,1778672778.0,197.0,-0.074219,0.164062,-9.800781,,,,,,,,,,
acc,1778672778.0,197.0,-0.074219,0.164062,-9.800781,,,,,,,,,,
acc,1778672778.0,197.0,-0.074219,0.164062,-9.800781,,,,,,,,,,
acc,1778672778.0,197.0,-0.074219,0.164062,-9.800781,,,,,,,,,,
acc,1778672778.0,197.0,-0.074219,0.164062,-9.835938,,,,,,,,,,
acc,1778672778.0,197.0,-0.074219,0.164062,-9.800781,,,,,,,,,,
acc,1778672778.0,197.0,-0.074219,0.128906,-9.839844,,,,,,,,,,
acc,1778672778.0,197.0,-0.074219,0.164062,-9.835938,,,,,,,,,,
acc,1778672778.0,197.0,-0.074219,0.164062,-9.835938,,,,,,,,,,
acc,1778672778.0,197.0,-0.074219,0.164062,-9.800781,,,,,,,,,,
acc,1778672778.0,197.0,-0.074219,0.164062,-9.800781,,,,,,,,,,
acc,1778672778.0,197.0,-0.074219,0.164062,-9.800781,,,,,,,,,,
acc,1778672778.0,197.0,-0.074219,0.164062,-9.800781,,,,,,,,,,
acc,1778672778.0,197.0,-0.074219,0.164062,-9.800781,,,,,,,,,,
acc,1778672778.0,197.0,-0.113281,0.164062,-9.796875,,,,,,,,,,
acc,1778672778.0,197.0,-0.074219,0.164062,-9.800781,,,,,,,,,,
acc,1778672778.0,197.0,-0.074219,0.164062,-9.800781,,,,,,,,,,
acc,1778672778.0,197.0,-0.074219,0.203125,-9.800781,,,,,,,,,,
acc,1778672778.0,197.0,-0.074219,0.164062,-9.800781,,,,,,,,,,
acc,1778672778.0,197.0,-0.074219,0.164062,-9.800781,,,,,,,,,,
acc,1778672778.0,197.0,-0.074219,0.164062,-9.800781,,,,,,,,,,
acc,1778672778.0,197.0,-0.074219,0.164062,-9.800781,,,,,,,,,,
acc,1778672778.0,197.0,-0.074219,0.164062,-9.835938,,,,,,,,,,
acc,1778672778.0,197.0,-0.074219,0.164062,-9.800781,,,,,,,,,,
acc,1778672778.0,197.0,-0.074219,0.164062,-9.800781,,,,,,,,,,
acc,1778672778.0,197.0,-0.074219,0.164062,-9.800781,,,,,,,,,,
acc,1778672778.0,197.0,-0.074219,0.203125,-9.800781,,,,,,,,,,
acc,1778672778.0,197.0,-0.074219,0.164062,-9.800781,,,,,,,,,,
acc,1778672778.0,197.0,-0.074219,0.164062,-9.800781,,,,,,,,,,
acc,1778672778.0,197.0,-0.074219,0.164062,-9.835938,,,,,,,,,,
acc,1778672778.0,197.0,-0.074219,0.164062,-9.800781,,,,,,,,,,
acc,1778672778.0,197.0,-0.074219,0.164062,-9.800781,,,,,,,,,,
acc,1778672778.0,197.0,-0.074219,0.164062,-9.800781,,,,,,,,,,
acc,1778672778.0,197.0,-0.074219,0.164062,-9.800781,,,,,,,,,,
acc,1778672778.0,197.0,-0.074219,0.203125,-9.800781,,,,,,,,,,
acc,1778672778.0,197.0,-0.074219,0.203125,-9.800781,,,,,,,,,,
acc,1778672778.0,197.0,-0.074219,0.203125,-9.800781,,,,,,,,,,
acc,1778672778.0,197.0,-0.035156,0.203125,-9.796875,,,,,,,,,,
acc,1778672778.0,197.0,-0.074219,0.203125,-9.800781,,,,,,,,,,
acc,1778672778.0,197.0,-0.074219,0.164062,-9.800781,,,,,,,,,,
acc,1778672778.0,197.0,-0.074219,0.164062,-9.800781,,,,,,,,,,
acc,1778672778.0,197.0,-0.074219,0.203125,-9.835938,,,,,,,,,,
acc,1778672778.0,197.0,-0.074219,0.203125,-9.800781,,,,,,,,,,
acc,1778672778.0,197.0,-0.074219,0.203125,-9.800781,,,,,,,,,,
acc,1778672778.0,197.0,-0.074219,0.164062,-9.800781,,,,,,,,,,
acc,1778672778.0,197.0,-0.074219,0.203125,-9.800781,,,,,,,,,,
acc,1778672778.0,197.0,-0.074219,0.164062,-9.800781,,,,,,,,,,
acc,1778672778.0,197.0,-0.074219,0.203125,-9.835938,,,,,,,,,,
acc,1778672778.0,197.0,-0.113281,0.203125,-9.796875,,,,,,,,,,
acc,1778672778.0,197.0,-0.074219,0.203125,-9.800781,,,,,,,,,,
acc,1778672778.0,197.0,-0.074219,0.203125,-9.800781,,,,,,,,,,
acc,1778672778.0,197.0,-0.074219,0.164062,-9.800781,,,,,,,,,,
acc,1778672778.0,197.0,-0.074219,0.164062,-9.800781,,,,,,,,,,
acc,1778672778.0,197.0,-0.074219,0.164062,-9.835938,,,,,,,,,,
acc,1778672778.0,197.0,-0.074219,0.164062,-9.835938,,,,,,,,,,
acc,1778672778.0,197.0,-0.074219,0.164062,-9.800781,,,,,,,,,,
acc,1778672778.0,197.0,-0.074219,0.164062,-9.800781,,,,,,,,,,
acc,1778672778.0,197.0,-0.113281,0.203125,-9.796875,,,,,,,,,,
acc,1778672779.0,198.0,-0.074219,0.164062,-9.800781,,,,,,,,,,
acc,1778672779.0,198.0,-0.113281,0.164062,-9.796875,,,,,,,,,,
acc,1778672779.0,198.0,-0.074219,0.203125,-9.800781,,,,,,,,,,
acc,1778672779.0,198.0,-0.074219,0.164062,-9.800781,,,,,,,,,,
acc,1778672779.0,198.0,-0.074219,0.203125,-9.800781,,,,,,,,,,
acc,1778672779.0,198.0,-0.035156,0.164062,-9.796875,,,,,,,,,,
acc,1778672779.0,198.0,-0.074219,0.164062,-9.800781,,,,,,,,,,
acc,1778672779.0,198.0,-0.074219,0.164062,-9.800781,,,,,,,,,,
acc,1778672779.0,198.0,-0.074219,0.164062,-9.835938,,,,,,,,,,
acc,1778672779.0,198.0,-0.074219,0.203125,-9.835938,,,,,,,,,,
acc,1778672779.0,198.0,-0.074219,0.203125,-9.800781,,,,,,,,,,
acc,1778672779.0,198.0,-0.074219,0.203125,-9.800781,,,,,,,,,,
acc,1778672779.0,198.0,-0.074219,0.164062,-9.800781,,,,,,,,,,
acc,1778672779.0,198.0,-0.074219,0.203125,-9.800781,,,,,,,,,,
acc,1778672779.0,198.0,-0.074219,0.164062,-9.800781,,,,,,,,,,
acc,1778672779.0,198.0,-0.035156,0.164062,-9.839844,,,,,,,,,,
acc,1778672779.0,198.0,-0.074219,0.164062,-9.800781,,,,,,,,,,
acc,1778672779.0,198.0,-0.113281,0.164062,-9.796875,,,,,,,,,,
acc,1778672779.0,198.0,-0.074219,0.203125,-9.800781,,,,,,,,,,
acc,1778672779.0,198.0,-0.074219,0.164062,-9.800781,,,,,,,,,,
acc,1778672779.0,198.0,-0.074219,0.164062,-9.800781,,,,,,,,,,
acc,1778672779.0,198.0,-0.074219,0.164062,-9.800781,,,,,,,,,,
acc,1778672779.0,198.0,-0.074219,0.164062,-9.800781,,,,,,,,,,
acc,1778672779.0,198.0,-0.074219,0.203125,-9.800781,,,,,,,,,,
acc,1778672779.0,198.0,-0.074219,0.203125,-9.757812,,,,,,,,,,
acc,1778672779.0,198.0,-0.074219,0.164062,-9.835938,,,,,,,,,,
acc,1778672779.0,198.0,-0.074219,0.164062,-9.757812,,,,,,,,,,
acc,1778672779.0,198.0,-0.074219,0.203125,-9.835938,,,,,,,,,,
acc,1778672779.0,198.0,-0.074219,0.203125,-9.800781,,,,,,,,,,
acc,1778672779.0,198.0,-0.074219,0.164062,-9.800781,,,,,,,,,,
acc,1778672779.0,198.0,-0.035156,0.164062,-9.761719,,,,,,,,,,
acc,1778672779.0,198.0,-0.074219,0.164062,-9.800781,,,,,,,,,,
acc,1778672779.0,198.0,-0.035156,0.203125,-9.761719,,,,,,,,,,
acc,1778672779.0,198.0,-0.074219,0.164062,-9.800781,,,,,,,,,,
acc,1778672779.0,198.0,-0.074219,0.164062,-9.800781,,,,,,,,,,
acc,1778672779.0,198.0,-0.074219,0.203125,-9.800781,,,,,,,,,,
acc,1778672779.0,198.0,-0.074219,0.164062,-9.800781,,,,,,,,,,
acc,1778672779.0,198.0,-0.035156,0.203125,-9.839844,,,,,,,,,,
acc,1778672779.0,198.0,-0.074219,0.164062,-9.757812,,,,,,,,,,
acc,1778672779.0,198.0,-0.074219,0.203125,-9.835938,,,,,,,,,,
acc,1778672779.0,198.0,-0.074219,0.164062,-9.800781,,,,,,,,,,
acc,1778672779.0,198.0,-0.074219,0.164062,-9.835938,,,,,,,,,,
acc,1778672779.0,198.0,-0.074219,0.164062,-9.800781,,,,,,,,,,
acc,1778672779.0,198.0,-0.074219,0.164062,-9.800781,,,,,,,,,,
acc,1778672779.0,198.0,-0.074219,0.164062,-9.800781,,,,,,,,,,
acc,1778672779.0,198.0,-0.074219,0.164062,-9.800781,,,,,,,,,,
acc,1778672779.0,198.0,-0.074219,0.164062,-9.835938,,,,,,,,,,
acc,1778672779.0,198.0,-0.113281,0.164062,-9.796875,,,,,,,,,,
acc,1778672779.0,198.0,-0.074219,0.164062,-9.800781,,,,,,,,,,
acc,1778672779.0,198.0,-0.113281,0.164062,-9.796875,,,,,,,,,,
acc,1778672779.0,198.0,-0.074219,0.203125,-9.800781,,,,,,,,,,
acc,1778672779.0,198.0,-0.113281,0.203125,-9.796875,,,,,,,,,,
acc,1778672779.0,198.0,-0.113281,0.203125,-9.796875,,,,,,,,,,
acc,1778672779.0,198.0,-0.113281,0.164062,-9.796875,,,,,,,,,,
acc,1778672779.0,198.0,-0.113281,0.164062,-9.796875,,,,,,,,,,
acc,1778672779.0,198.0,-0.074219,0.203125,-9.800781,,,,,,,,,,
acc,1778672779.0,198.0,-0.074219,0.164062,-9.800781,,,,,,,,,,
acc,1778672779.0,198.0,-0.074219,0.164062,-9.800781,,,,,,,,,,
acc,1778672779.0,198.0,-0.074219,0.164062,-9.800781,,,,,,,,,,
acc,1778672779.0,198.0,-0.074219,0.164062,-9.835938,,,,,,,,,,
acc,1778672779.0,198.0,-0.074219,0.164062,-9.800781,,,,,,,,,,
acc,1778672779.0,198.0,-0.074219,0.164062,-9.800781,,,,,,,,,,
acc,1778672779.0,198.0,-0.074219,0.164062,-9.800781,,,,,,,,,,
acc,1778672779.0,198.0,-0.074219,0.203125,-9.800781,,,,,,,,,,
acc,1778672779.0,198.0,-0.074219,0.164062,-9.800781,,,,,,,,,,
acc,1778672779.0,198.0,-0.074219,0.203125,-9.800781,,,,,,,,,,
acc,1778672779.0,198.0,-0.074219,0.164062,-9.800781,,,,,,,,,,
acc,1778672779.0,198.0,-0.074219,0.164062,-9.800781,,,,,,,,,,
acc,1778672779.0,198.0,-0.074219,0.203125,-9.800781,,,,,,,,,,
acc,1778672779.0,198.0,-0.074219,0.203125,-9.757812,,,,,,,,,,
acc,1778672779.0,198.0,-0.035156,0.164062,-9.796875,,,,,,,,,,
acc,1778672779.0,198.0,-0.035156,0.203125,-9.839844,,,,,,,,,,
acc,1778672779.0,198.0,-0.074219,0.164062,-9.835938,,,,,,,,,,
acc,1778672779.0,198.0,-0.074219,0.203125,-9.800781,,,,,,,,,,
acc,1778672779.0,198.0,-0.035156,0.203125,-9.796875,,,,,,,,,,
acc,1778672779.0,198.0,-0.074219,0.203125,-9.800781,,,,,,,,,,
acc,1778672779.0,198.0,-0.074219,0.203125,-9.835938,,,,,,,,,,
acc,1778672779.0,198.0,-0.074219,0.203125,-9.800781,,,,,,,,,,
acc,1778672779.0,198.0,-0.074219,0.164062,-9.800781,,,,,,,,,,
acc,1778672779.0,198.0,-0.074219,0.203125,-9.800781,,,,,,,,,,
acc,1778672779.0,198.0,-0.074219,0.203125,-9.800781,,,,,,,,,,
acc,1778672779.0,198.0,-0.074219,0.203125,-9.800781,,,,,,,,,,
acc,1778672779.0,198.0,-0.074219,0.203125,-9.800781,,,,,,,,,,
acc,1778672779.0,198.0,-0.074219,0.203125,-9.800781,,,,,,,,,,
acc,1778672779.0,198.0,-0.074219,0.164062,-9.800781,,,,,,,,,,
acc,1778672779.0,198.0,-0.113281,0.164062,-9.761719,,,,,,,,,,
acc,1778672779.0,198.0,-0.113281,0.164062,-9.839844,,,,,,,,,,
acc,1778672779.0,198.0,-0.113281,0.164062,-9.761719,,,,,,,,,,
acc,1778672779.0,198.0,-0.074219,0.164062,-9.800781,,,,,,,,,,
acc,1778672779.0,198.0,-0.074219,0.164062,-9.835938,,,,,,,,,,
acc,1778672779.0,198.0,-0.074219,0.164062,-9.800781,,,,,,,,,,
acc,1778672779.0,198.0,-0.074219,0.164062,-9.800781,,,,,,,,,,
acc,1778672779.0,198.0,-0.035156,0.164062,-9.796875,,,,,,,,,,
acc,1778672779.0,198.0,-0.074219,0.164062,-9.835938,,,,,,,,,,
acc,1778672779.0,198.0,-0.074219,0.164062,-9.800781,,,,,,,,,,
acc,1778672779.0,198.0,-0.074219,0.164062,-9.800781,,,,,,,,,,
acc,1778672779.0,198.0,-0.074219,0.203125,-9.835938,,,,,,,,,,
acc,1778672779.0,198.0,-0.074219,0.203125,-9.800781,,,,,,,,,,
acc,1778672779.0,198.0,-0.113281,0.164062,-9.796875,,,,,,,,,,
acc,1778672779.0,198.0,-0.035156,0.203125,-9.796875,,,,,,,,,,
acc,1778672779.0,198.0,-0.113281,0.203125,-9.796875,,,,,,,,,,
acc,1778672779.0,198.0,-0.074219,0.203125,-9.835938,,,,,,,,,,
acc,1778672779.0,198.0,-0.074219,0.203125,-9.800781,,,,,,,,,,
acc,1778672779.0,198.0,-0.074219,0.203125,-9.835938,,,,,,,,,,
acc,1778672779.0,198.0,-0.074219,0.203125,-9.835938,,,,,,,,,,
acc,1778672779.0,198.0,-0.074219,0.203125,-9.835938,,,,,,,,,,
acc,1778672779.0,198.0,-0.035156,0.164062,-9.796875,,,,,,,,,,
acc,1778672779.0,198.0,-0.074219,0.203125,-9.835938,,,,,,,,,,
acc,1778672779.0,198.0,-0.074219,0.203125,-9.835938,,,,,,,,,,
acc,1778672779.0,198.0,-0.074219,0.164062,-9.800781,,,,,,,,,,
acc,1778672779.0,198.0,-0.074219,0.164062,-9.800781,,,,,,,,,,
acc,1778672779.0,198.0,-0.074219,0.164062,-9.800781,,,,,,,,,,
acc,1778672779.0,198.0,-0.113281,0.164062,-9.839844,,,,,,,,,,
acc,1778672779.0,198.0,-0.074219,0.164062,-9.800781,,,,,,,,,,
acc,1778672779.0,198.0,-0.074219,0.164062,-9.835938,,,,,,,,,,
acc,1778672779.0,198.0,-0.035156,0.164062,-9.796875,,,,,,,,,,
acc,1778672779.0,198.0,-0.074219,0.164062,-9.800781,,,,,,,,,,
acc,1778672779.0,198.0,-0.074219,0.164062,-9.757812,,,,,,,,,,
acc,1778672779.0,198.0,-0.074219,0.164062,-9.800781,,,,,,,,,,
acc,1778672779.0,198.0,-0.074219,0.164062,-9.757812,,,,,,,,,,
acc,1778672779.0,198.0,-0.074219,0.164062,-9.800781,,,,,,,,,,
acc,1778672779.0,198.0,-0.074219,0.164062,-9.835938,,,,,,,,,,
acc,1778672779.0,198.0,-0.074219,0.164062,-9.800781,,,,,,,,,,
acc,1778672779.0,198.0,-0.074219,0.203125,-9.800781,,,,,,,,,,
acc,1778672779.0,198.0,-0.074219,0.164062,-9.757812,,,,,,,,,,
acc,1778672780.0,199.0,-0.074219,0.164062,-9.757812,,,,,,,,,,
acc,1778672780.0,199.0,-0.074219,0.203125,-9.800781,,,,,,,,,,
acc,1778672780.0,199.0,-0.074219,0.203125,-9.800781,,,,,,,,,,
acc,1778672780.0,199.0,-0.074219,0.164062,-9.800781,,,,,,,,,,
acc,1778672780.0,199.0,-0.074219,0.128906,-9.796875,,,,,,,,,,
acc,1778672780.0,199.0,-0.113281,0.164062,-9.796875,,,,,,,,,,
acc,1778672780.0,199.0,-0.074219,0.164062,-9.800781,,,,,,,,,,
acc,1778672780.0,199.0,-0.074219,0.164062,-9.800781,,,,,,,,,,
acc,1778672780.0,199.0,-0.074219,0.164062,-9.835938,,,,,,,,,,
acc,1778672780.0,199.0,-0.074219,0.164062,-9.800781,,,,,,,,,,
acc,1778672780.0,199.0,-0.074219,0.164062,-9.835938,,,,,,,,,,
acc,1778672780.0,199.0,-0.074219,0.164062,-9.800781,,,,,,,,,,
acc,1778672780.0,199.0,-0.074219,0.164062,-9.800781,,,,,,,,,,
acc,1778672780.0,199.0,-0.074219,0.164062,-9.800781,,,,,,,,,,
acc,1778672780.0,199.0,-0.074219,0.203125,-9.835938,,,,,,,,,,
acc,1778672780.0,199.0,-0.074219,0.203125,-9.800781,,,,,,,,,,
acc,1778672780.0,199.0,-0.074219,0.203125,-9.800781,,,,,,,,,,
acc,1778672780.0,199.0,-0.074219,0.203125,-9.800781,,,,,,,,,,
acc,1778672780.0,199.0,-0.074219,0.203125,-9.800781,,,,,,,,,,
acc,1778672780.0,199.0,-0.074219,0.203125,-9.800781,,,,,,,,,,
acc,1778672780.0,199.0,-0.074219,0.203125,-9.800781,,,,,,,,,,
acc,1778672780.0,199.0,-0.113281,0.203125,-9.796875,,,,,,,,,,
acc,1778672780.0,199.0,-0.074219,0.203125,-9.800781,,,,,,,,,,
acc,1778672780.0,199.0,-0.113281,0.203125,-9.796875,,,,,,,,,,
acc,1778672780.0,199.0,-0.113281,0.164062,-9.761719,,,,,,,,,,
acc,1778672780.0,199.0,-0.152344,0.164062,-9.796875,,,,,,,,,,
acc,1778672780.0,199.0,-0.152344,0.164062,-9.761719,,,,,,,,,,
acc,1778672780.0,199.0,-0.191406,0.164062,-9.757812,,,,,,,,,,
acc,1778672780.0,199.0,-0.152344,0.164062,-9.796875,,,,,,,,,,
acc,1778672780.0,199.0,-0.191406,0.203125,-9.730469,,,,,,,,,,
acc,1778672780.0,199.0,-0.191406,0.164062,-9.757812,,,,,,,,,,
acc,1778672780.0,199.0,-0.226562,0.203125,-9.761719,,,,,,,,,,
acc,1778672780.0,199.0,-0.191406,0.164062,-9.757812,,,,,,,,,,
acc,1778672780.0,199.0,-0.226562,0.203125,-9.796875,,,,,,,,,,
acc,1778672780.0,199.0,-0.226562,0.203125,-9.796875,,,,,,,,,,
acc,1778672780.0,199.0,-0.265625,0.203125,-9.800781,,,,,,,,,,
acc,1778672780.0,199.0,-0.265625,0.203125,-9.757812,,,,,,,,,,
acc,1778672780.0,199.0,-0.304688,0.164062,-9.800781,,,,,,,,,,
acc,1778672780.0,199.0,-0.34375,0.203125,-9.761719,,,,,,,,,,
acc,1778672780.0,199.0,-0.34375,0.203125,-9.796875,,,,,,,,,,
acc,1778672780.0,199.0,-0.34375,0.203125,-9.796875,,,,,,,,,,
acc,1778672780.0,199.0,-0.382812,0.203125,-9.761719,,,,,,,,,,
acc,1778672780.0,199.0,-0.382812,0.203125,-9.761719,,,,,,,,,,
acc,1778672780.0,199.0,-0.382812,0.203125,-9.761719,,,,,,,,,,
acc,1778672780.0,199.0,-0.417969,0.203125,-9.761719,,,,,,,,,,
acc,1778672780.0,199.0,-0.417969,0.203125,-9.761719,,,,,,,,,,
acc,1778672780.0,199.0,-0.457031,0.203125,-9.796875,,,,,,,,,,
acc,1778672780.0,199.0,-0.457031,0.203125,-9.796875,,,,,,,,,,
acc,1778672780.0,199.0,-0.496094,0.203125,-9.761719,,,,,,,,,,
acc,1778672780.0,199.0,-0.496094,0.203125,-9.761719,,,,,,,,,,
acc,1778672780.0,199.0,-0.535156,0.203125,-9.796875,,,,,,,,,,
acc,1778672780.0,199.0,-0.574219,0.164062,-9.757812,,,,,,,,,,
acc,1778672780.0,199.0,-0.613281,0.164062,-9.796875,,,,,,,,,,
acc,1778672780.0,199.0,-0.613281,0.164062,-9.761719,,,,,,,,,,
acc,1778672780.0,199.0,-0.648438,0.164062,-9.757812,,,,,,,,,,
acc,1778672780.0,199.0,-0.6875,0.164062,-9.796875,,,,,,,,,,
acc,1778672780.0,199.0,-0.6875,0.128906,-9.757812,,,,,,,,,,
acc,1778672780.0,199.0,-0.726562,0.164062,-9.761719,,,,,,,,,,
acc,1778672780.0,199.0,-0.765625,0.164062,-9.800781,,,,,,,,,,
acc,1778672780.0,199.0,-0.765625,0.128906,-9.796875,,,,,,,,,,
acc,1778672780.0,199.0,-0.804688,0.164062,-9.800781,,,,,,,,,,
acc,1778672780.0,199.0,-0.839844,0.128906,-9.757812,,,,,,,,,,
acc,1778672780.0,199.0,-0.878906,0.128906,-9.800781,,,,,,,,,,
acc,1778672780.0,199.0,-0.878906,0.128906,-9.800781,,,,,,,,,,
acc,1778672780.0,199.0,-0.917969,0.128906,-9.800781,,,,,,,,,,
acc,1778672780.0,199.0,-0.917969,0.128906,-9.800781,,,,,,,,,,
acc,1778672780.0,199.0,-0.917969,0.128906,-9.835938,,,,,,,,,,
acc,1778672780.0,199.0,-0.957031,0.128906,-9.800781,,,,,,,,,,
acc,1778672780.0,199.0,-0.957031,0.128906,-9.800781,,,,,,,,,,
acc,1778672780.0,199.0,-0.957031,0.128906,-9.800781,,,,,,,,,,
acc,1778672780.0,199.0,-0.957031,0.164062,-9.839844,,,,,,,,,,
acc,1778672780.0,199.0,-0.996094,0.164062,-9.839844,,,,,,,,,,
acc,1778672780.0,199.0,-0.996094,0.128906,-9.835938,,,,,,,,,,
acc,1778672780.0,199.0,-1.03125,0.128906,-9.839844,,,,,,,,,,
acc,1778672780.0,199.0,-1.070312,0.128906,-9.800781,,,,,,,,,,
acc,1778672780.0,199.0,-1.070312,0.164062,-9.839844,,,,,,,,,,
acc,1778672780.0,199.0,-1.109375,0.128906,-9.796875,,,,,,,,,,
acc,1778672780.0,199.0,-1.109375,0.128906,-9.796875,,,,,,,,,,
acc,1778672780.0,199.0,-1.148438,0.128906,-9.839844,,,,,,,,,,
acc,1778672780.0,199.0,-1.1875,0.128906,-9.835938,,,,,,,,,,
acc,1778672780.0,199.0,-1.1875,0.164062,-9.839844,,,,,,,,,,
acc,1778672780.0,199.0,-1.1875,0.164062,-9.839844,,,,,,,,,,
acc,1778672780.0,199.0,-1.1875,0.164062,-9.839844,,,,,,,,,,
acc,1778672780.0,199.0,-1.222656,0.164062,-9.839844,,,,,,,,,,
acc,1778672780.0,199.0,-1.222656,0.128906,-9.835938,,,,,,,,,,
acc,1778672780.0,199.0,-1.222656,0.164062,-9.878906,,,,,,,,,,
acc,1778672780.0,199.0,-1.261719,0.164062,-9.839844,,,,,,,,,,
acc,1778672780.0,199.0,-1.261719,0.164062,-9.878906,,,,,,,,,,
acc,1778672780.0,199.0,-1.300781,0.164062,-9.875,,,,,,,,,,
acc,1778672780.0,199.0,-1.339844,0.164062,-9.796875,,,,,,,,,,
acc,1778672780.0,199.0,-1.339844,0.164062,-9.878906,,,,,,,,,,
acc,1778672780.0,199.0,-1.378906,0.164062,-9.878906,,,,,,,,,,
acc,1778672780.0,199.0,-1.378906,0.164062,-9.878906,,,,,,,,,,
acc,1778672780.0,199.0,-1.378906,0.164062,-9.878906,,,,,,,,,,
acc,1778672780.0,199.0,-1.378906,0.164062,-9.839844,,,,,,,,,,
acc,1778672780.0,199.0,-1.453125,0.164062,-9.875,,,,,,,,,,
acc,1778672780.0,199.0,-1.453125,0.164062,-9.875,,,,,,,,,,
acc,1778672780.0,199.0,-1.453125,0.164062,-9.835938,,,,,,,,,,
acc,1778672780.0,199.0,-1.492188,0.128906,-9.878906,,,,,,,,,,
acc,1778672780.0,199.0,-1.53125,0.128906,-9.839844,,,,,,,,,,
acc,1778672780.0,199.0,-1.53125,0.164062,-9.835938,,,,,,,,,,
acc,1778672780.0,199.0,-1.53125,0.128906,-9.839844,,,,,,,,,,
acc,1778672780.0,199.0,-1.605469,0.128906,-9.875,,,,,,,,,,
acc,1778672780.0,199.0,-1.570312,0.128906,-9.835938,,,,,,,,,,
acc,1778672780.0,199.0,-1.605469,0.128906,-9.835938,,,,,,,,,,
acc,1778672780.0,199.0,-1.683594,0.164062,-9.875,,,,,,,,,,
acc,1778672780.0,199.0,-1.644531,0.164062,-9.835938,,,,,,,,,,
acc,1778672780.0,199.0,-1.683594,0.164062,-9.835938,,,,,,,,,,
acc,1778672780.0,199.0,-1.683594,0.128906,-9.839844,,,,,,,,,,
acc,1778672780.0,199.0,-1.722656,0.164062,-9.796875,,,,,,,,,,
acc,1778672780.0,199.0,-1.761719,0.164062,-9.878906,,,,,,,,,,
acc,1778672780.0,199.0,-1.761719,0.203125,-9.839844,,,,,,,,,,
acc,1778672780.0,199.0,-1.875,0.203125,-9.835938,,,,,,,,,,
acc,1778672780.0,199.0,-1.875,0.164062,-9.835938,,,,,,,,,,
acc,1778672780.0,199.0,-1.875,0.164062,-9.835938,,,,,,,,,,
acc,1778672780.0,199.0,-1.875,0.203125,-9.835938,,,,,,,,,,
acc,1778672780.0,199.0,-1.953125,0.203125,-9.800781,,,,,,,,,,
acc,1778672780.0,199.0,-1.992188,0.203125,-9.835938,,,,,,,,,,
acc,1778672780.0,199.0,-2.027344,0.203125,-9.835938,,,,,,,,,,
acc,1778672780.0,199.0,-2.105469,0.242188,-9.761719,,,,,,,,,,
acc,1778672780.0,199.0,-2.105469,0.203125,-9.839844,,,,,,,,,,
acc,1778672780.0,199.0,-2.144531,0.242188,-9.800781,,,,,,,,,,
acc,1778672780.0,199.0,-2.144531,0.203125,-9.835938,,,,,,,,,,
acc,1778672780.0,199.0,-2.105469,0.089844,-9.835938,,,,,,,,,,
acc,1778672780.0,199.0,-2.144531,0.242188,-9.835938,,,,,,,,,,
acc,1778672780.0,199.0,-2.144531,0.203125,-9.835938,,,,,,,,,,
acc,1778672780.0,199.0,-2.183594,0.164062,-9.800781,,,,,,,,,,
acc,1778672780.0,199.0,-2.183594,0.164062,-9.914062,,,,,,,,,,
acc,1778672781.0,200.0,-2.183594,0.128906,-9.761719,,,,,,,,,,
acc,1778672781.0,200.0,-2.183594,0.164062,-9.875,,,,,,,,,,
acc,1778672781.0,200.0,-2.21875,0.128906,-9.796875,,,,,,,,,,
acc,1778672781.0,200.0,-2.296875,0.128906,-9.875,,,,,,,,,,
acc,1778672781.0,200.0,-2.296875,0.128906,-9.800781,,,,,,,,,,
acc,1778672781.0,200.0,-2.296875,0.128906,-9.835938,,,,,,,,,,
acc,1778672781.0,200.0,-2.296875,0.164062,-9.796875,,,,,,,,,,
acc,1778672781.0,200.0,-2.296875,0.164062,-9.796875,,,,,,,,,,
acc,1778672781.0,200.0,-2.296875,0.128906,-9.835938,,,,,,,,,,
acc,1778672781.0,200.0,-2.335938,0.164062,-9.800781,,,,,,,,,,
acc,1778672781.0,200.0,-2.296875,0.164062,-9.839844,,,,,,,,,,
acc,1778672781.0,200.0,-2.257812,0.089844,-9.839844,,,,,,,,,,
acc,1778672781.0,200.0,-2.257812,0.164062,-9.835938,,,,,,,,,,
acc,1778672781.0,200.0,-2.257812,0.164062,-9.875,,,,,,,,,,
acc,1778672781.0,200.0,-2.257812,0.164062,-9.875,,,,,,,,,,
acc,1778672781.0,200.0,-2.257812,0.203125,-9.835938,,,,,,,,,,
acc,1778672781.0,200.0,-2.257812,0.203125,-9.800781,,,,,,,,,,
acc,1778672781.0,200.0,-2.257812,0.203125,-9.835938,,,,,,,,,,
acc,1778672781.0,200.0,-2.257812,0.242188,-9.875,,,,,,,,,,
acc,1778672781.0,200.0,-2.257812,0.203125,-9.835938,,,,,,,,,,
acc,1778672781.0,200.0,-2.257812,0.203125,-9.835938,,,,,,,,,,
acc,1778672781.0,200.0,-2.257812,0.203125,-9.875,,,,,,,,,,
acc,1778672781.0,200.0,-2.21875,0.164062,-9.875,,,,,,,,,,
acc,1778672781.0,200.0,-2.21875,0.164062,-9.835938,,,,,,,,,,
acc,1778672781.0,200.0,-2.21875,0.203125,-9.875,,,,,,,,,,
acc,1778672781.0,200.0,-2.21875,0.203125,-9.835938,,,,,,,,,,
acc,1778672781.0,200.0,-2.21875,0.164062,-9.875,,,,,,,,,,
acc,1778672781.0,200.0,-2.183594,0.164062,-9.800781,,,,,,,,,,
acc,1778672781.0,200.0,-2.21875,0.128906,-9.839844,,,,,,,,,,
acc,1778672781.0,200.0,-2.144531,0.164062,-9.875,,,,,,,,,,
acc,1778672781.0,200.0,-2.183594,0.203125,-9.800781,,,,,,,,,,
acc,1778672781.0,200.0,-2.21875,0.203125,-9.875,,,,,,,,,,
acc,1778672781.0,200.0,-2.21875,0.28125,-9.835938,,,,,,,,,,
acc,1778672781.0,200.0,-2.183594,0.28125,-9.875,,,,,,,,,,
acc,1778672781.0,200.0,-2.183594,0.242188,-9.835938,,,,,,,,,,
acc,1778672781.0,200.0,-2.183594,0.242188,-9.835938,,,,,,,,,,
acc,1778672781.0,200.0,-2.257812,0.242188,-9.835938,,,,,,,,,,
acc,1778672781.0,200.0,-2.21875,0.28125,-9.835938,,,,,,,,,,
acc,1778672781.0,200.0,-2.21875,0.355469,-9.796875,,,,,,,,,,
acc,1778672781.0,200.0,-2.257812,0.355469,-9.839844,,,,,,,,,,
acc,1778672781.0,200.0,-2.21875,0.355469,-9.839844,,,,,,,,,,
acc,1778672781.0,200.0,-2.183594,0.394531,-9.757812,,,,,,,,,,
acc,1778672781.0,200.0,-2.21875,0.28125,-9.800781,,,,,,,,,,
acc,1778672781.0,200.0,-2.21875,0.28125,-9.875,,,,,,,,,,
acc,1778672781.0,200.0,-2.21875,0.320312,-9.796875,,,,,,,,,,
acc,1778672781.0,200.0,-2.21875,0.28125,-9.757812,,,,,,,,,,
acc,1778672781.0,200.0,-2.183594,0.28125,-9.800781,,,,,,,,,,
acc,1778672781.0,200.0,-2.257812,0.242188,-9.835938,,,,,,,,,,
acc,1778672781.0,200.0,-2.296875,0.28125,-9.839844,,,,,,,,,,
acc,1778672781.0,200.0,-2.21875,0.203125,-9.835938,,,,,,,,,,
acc,1778672781.0,200.0,-2.21875,0.242188,-9.875,,,,,,,,,,
acc,1778672781.0,200.0,-2.183594,0.242188,-9.800781,,,,,,,,,,
acc,1778672781.0,200.0,-2.183594,0.164062,-9.875,,,,,,,,,,
acc,1778672781.0,200.0,-2.21875,0.164062,-9.800781,,,,,,,,,,
acc,1778672781.0,200.0,-2.21875,0.164062,-9.835938,,,,,,,,,,
acc,1778672781.0,200.0,-2.21875,0.164062,-9.800781,,,,,,,,,,
acc,1778672781.0,200.0,-2.257812,0.203125,-9.835938,,,,,,,,,,
acc,1778672781.0,200.0,-2.21875,0.28125,-9.835938,,,,,,,,,,
acc,1778672781.0,200.0,-2.21875,0.320312,-9.878906,,,,,,,,,,
acc,1778672781.0,200.0,-2.21875,0.203125,-9.875,,,,,,,,,,
acc,1778672781.0,200.0,-2.21875,0.164062,-9.757812,,,,,,,,,,
acc,1778672781.0,200.0,-2.21875,0.128906,-9.878906,,,,,,,,,,
acc,1778672781.0,200.0,-2.21875,0.128906,-9.796875,,,,,,,,,,
acc,1778672781.0,200.0,-2.257812,0.203125,-9.757812,,,,,,,,,,
acc,1778672781.0,200.0,-2.296875,0.28125,-9.796875,,,,,,,,,,
acc,1778672781.0,200.0,-2.375,0.394531,-9.875,,,,,,,,,,
acc,1778672781.0,200.0,-2.296875,0.394531,-9.878906,,,,,,,,,,
acc,1778672781.0,200.0,-2.21875,0.355469,-9.839844,,,,,,,,,,
acc,1778672781.0,200.0,-2.21875,0.320312,-9.878906,,,,,,,,,,
acc,1778672781.0,200.0,-2.296875,0.28125,-9.878906,,,,,,,,,,
acc,1778672781.0,200.0,-2.375,0.203125,-9.875,,,,,,,,,,
acc,1778672781.0,200.0,-2.257812,0.28125,-9.835938,,,,,,,,,,
acc,1778672781.0,200.0,-2.257812,0.28125,-9.875,,,,,,,,,,
acc,1778672781.0,200.0,-2.21875,0.355469,-9.726562,,,,,,,,,,
acc,1778672781.0,200.0,-2.375,0.355469,-9.839844,,,,,,,,,,
acc,1778672781.0,200.0,-2.410156,0.355469,-9.839844,,,,,,,,,,
acc,1778672781.0,200.0,-2.257812,0.28125,-9.835938,,,,,,,,,,
acc,1778672781.0,200.0,-2.21875,0.320312,-9.839844,,,,,,,,,,
acc,1778672781.0,200.0,-2.144531,0.320312,-9.796875,,,,,,,,,,
acc,1778672781.0,200.0,-2.257812,0.355469,-9.761719,,,,,,,,,,
acc,1778672781.0,200.0,-2.335938,0.355469,-9.839844,,,,,,,,,,
acc,1778672781.0,200.0,-2.257812,0.320312,-9.761719,,,,,,,,,,
acc,1778672781.0,200.0,-2.296875,0.355469,-9.835938,,,,,,,,,,
acc,1778672781.0,200.0,-2.21875,0.320312,-9.726562,,,,,,,,,,
acc,1778672781.0,200.0,-2.21875,0.355469,-9.839844,,,,,,,,,,
acc,1778672781.0,200.0,-2.296875,0.355469,-9.757812,,,,,,,,,,
acc,1778672781.0,200.0,-2.335938,0.355469,-9.878906,,,,,,,,,,
acc,1778672781.0,200.0,-2.296875,0.355469,-9.800781,,,,,,,,,,
acc,1778672781.0,200.0,-2.335938,0.355469,-9.839844,,,,,,,,,,
acc,1778672781.0,200.0,-2.335938,0.394531,-9.800781,,,,,,,,,,
acc,1778672781.0,200.0,-2.375,0.433594,-9.835938,,,,,,,,,,
acc,1778672781.0,200.0,-2.410156,0.320312,-9.839844,,,,,,,,,,
acc,1778672781.0,200.0,-2.410156,0.355469,-9.796875,,,,,,,,,,
acc,1778672781.0,200.0,-2.449219,0.355469,-9.835938,,,,,,,,,,
acc,1778672781.0,200.0,-2.375,0.320312,-9.839844,,,,,,,,,,
acc,1778672781.0,200.0,-2.296875,0.242188,-9.761719,,,,,,,,,,
acc,1778672781.0,200.0,-2.335938,0.320312,-9.839844,,,,,,,,,,
acc,1778672781.0,200.0,-2.375,0.433594,-9.914062,,,,,,,,,,
acc,1778672781.0,200.0,-2.375,0.320312,-9.917969,,,,,,,,,,
acc,1778672781.0,200.0,-2.375,0.28125,-9.835938,,,,,,,,,,
acc,1778672781.0,200.0,-2.375,0.394531,-9.835938,,,,,,,,,,
acc,1778672781.0,200.0,-2.375,0.472656,-9.878906,,,,,,,,,,
acc,1778672781.0,200.0,-2.449219,0.394531,-9.878906,,,,,,,,,,
acc,1778672781.0,200.0,-2.375,0.394531,-9.953125,,,,,,,,,,
acc,1778672781.0,200.0,-2.335938,0.472656,-9.917969,,,,,,,,,,
acc,1778672781.0,200.0,-2.410156,0.394531,-9.914062,,,,,,,,,,
acc,1778672781.0,200.0,-2.410156,0.355469,-9.957031,,,,,,,,,,
acc,1778672781.0,200.0,-2.375,0.28125,-9.875,,,,,,,,,,
acc,1778672781.0,200.0,-2.375,0.28125,-9.835938,,,,,,,,,,
acc,1778672781.0,200.0,-2.335938,0.394531,-9.953125,,,,,,,,,,
acc,1778672781.0,200.0,-2.335938,0.320312,-9.796875,,,,,,,,,,
acc,1778672781.0,200.0,-2.375,0.242188,-9.875,,,,,,,,,,
acc,1778672781.0,200.0,-2.296875,0.28125,-9.878906,,,,,,,,,,
acc,1778672781.0,200.0,-2.335938,0.320312,-9.761719,,,,,,,,,,
acc,1778672781.0,200.0,-2.335938,0.320312,-9.917969,,,,,,,,,,
acc,1778672781.0,200.0,-2.410156,0.355469,-9.839844,,,,,,,,,,
acc,1778672781.0,200.0,-2.375,0.355469,-9.917969,,,,,,,,,,
acc,1778672781.0,200.0,-2.375,0.320312,-9.839844,,,,,,,,,,
acc,1778672781.0,200.0,-2.335938,0.320312,-9.839844,,,,,,,,,,
acc,1778672781.0,200.0,-2.335938,0.355469,-9.878906,,,,,,,,,,
acc,1778672781.0,200.0,-2.375,0.355469,-9.796875,,,,,,,,,,
acc,1778672781.0,200.0,-2.410156,0.355469,-9.796875,,,,,,,,,,
acc,1778672781.0,200.0,-2.410156,0.394531,-9.875,,,,,,,,,,
acc,1778672781.0,200.0,-2.335938,0.394531,-9.835938,,,,,,,,,,
acc,1778672781.0,200.0,-2.335938,0.472656,-9.726562,,,,,,,,,,
acc,1778672781.0,200.0,-2.410156,0.472656,-9.796875,,,,,,,,,,
acc,1778672781.0,200.0,-2.449219,0.625,-9.761719,,,,,,,,,,
acc,1778672781.0,200.0,-2.527344,0.625,-9.800781,,,,,,,,,,
acc,1778672782.0,201.0,-2.488281,0.511719,-9.796875,,,,,,,,,,
acc,1778672782.0,201.0,-2.449219,0.550781,-9.652344,,,,,,,,,,
acc,1778672782.0,201.0,-2.488281,0.703125,-9.800781,,,,,,,,,,
acc,1778672782.0,201.0,-2.449219,0.742188,-9.761719,,,,,,,,,,
acc,1778672782.0,201.0,-2.449219,0.742188,-9.6875,,,,,,,,,,
acc,1778672782.0,201.0,-2.488281,0.664062,-9.800781,,,,,,,,,,
acc,1778672782.0,201.0,-2.410156,0.664062,-9.757812,,,,,,,,,,
acc,1778672782.0,201.0,-2.410156,0.703125,-9.648438,,,,,,,,,,
acc,1778672782.0,201.0,-2.410156,0.585938,-9.691406,,,,,,,,,,
acc,1778672782.0,201.0,-2.449219,0.625,-9.6875,,,,,,,,,,
acc,1778672782.0,201.0,-2.449219,0.816406,-9.730469,,,,,,,,,,
acc,1778672782.0,201.0,-2.449219,0.855469,-9.691406,,,,,,,,,,
acc,1778672782.0,201.0,-2.527344,0.777344,-9.730469,,,,,,,,,,
acc,1778672782.0,201.0,-2.527344,0.664062,-9.835938,,,,,,,,,,
acc,1778672782.0,201.0,-2.488281,0.550781,-9.648438,,,,,,,,,,
acc,1778672782.0,201.0,-2.449219,0.550781,-9.761719,,,,,,,,,,
acc,1778672782.0,201.0,-2.527344,0.550781,-9.757812,,,,,,,,,,
acc,1778672782.0,201.0,-2.601562,0.585938,-9.757812,,,,,,,,,,
acc,1778672782.0,201.0,-2.527344,0.625,-9.875,,,,,,,,,,
acc,1778672782.0,201.0,-2.410156,0.550781,-9.800781,,,,,,,,,,
acc,1778672782.0,201.0,-2.488281,0.585938,-9.875,,,,,,,,,,
acc,1778672782.0,201.0,-2.566406,0.550781,-9.839844,,,,,,,,,,
acc,1778672782.0,201.0,-2.566406,0.511719,-9.914062,,,,,,,,,,
acc,1778672782.0,201.0,-2.488281,0.585938,-9.875,,,,,,,,,,
acc,1778672782.0,201.0,-2.488281,0.664062,-9.800781,,,,,,,,,,
acc,1778672782.0,201.0,-2.449219,0.585938,-9.917969,,,,,,,,,,
acc,1778672782.0,201.0,-2.527344,0.585938,-9.875,,,,,,,,,,
acc,1778672782.0,201.0,-2.566406,0.625,-9.839844,,,,,,,,,,
acc,1778672782.0,201.0,-2.488281,0.511719,-9.839844,,,,,,,,,,
acc,1778672782.0,201.0,-2.527344,0.550781,-9.875,,,,,,,,,,
acc,1778672782.0,201.0,-2.488281,0.703125,-9.875,,,,,,,,,,
acc,1778672782.0,201.0,-2.527344,0.703125,-9.800781,,,,,,,,,,
acc,1778672782.0,201.0,-2.527344,0.511719,-9.796875,,,,,,,,,,
acc,1778672782.0,201.0,-2.566406,0.703125,-9.957031,,,,,,,,,,
acc,1778672782.0,201.0,-2.527344,0.742188,-9.875,,,,,,,,,,
acc,1778672782.0,201.0,-2.449219,0.664062,-9.796875,,,,,,,,,,
acc,1778672782.0,201.0,-2.527344,0.511719,-9.917969,,,,,,,,,,
acc,1778672782.0,201.0,-2.527344,0.585938,-9.875,,,,,,,,,,
acc,1778672782.0,201.0,-2.566406,0.585938,-9.761719,,,,,,,,,,
acc,1778672782.0,201.0,-2.488281,0.433594,-9.914062,,,,,,,,,,
acc,1778672782.0,201.0,-2.375,0.511719,-9.796875,,,,,,,,,,
acc,1778672782.0,201.0,-2.449219,0.472656,-9.835938,,,,,,,,,,
acc,1778672782.0,201.0,-2.527344,0.550781,-9.835938,,,,,,,,,,
acc,1778672782.0,201.0,-2.488281,0.511719,-9.878906,,,,,,,,,,
acc,1778672782.0,201.0,-2.527344,0.550781,-9.875,,,,,,,,,,
acc,1778672782.0,201.0,-2.449219,0.625,-9.917969,,,,,,,,,,
acc,1778672782.0,201.0,-2.488281,0.625,-9.835938,,,,,,,,,,
acc,1778672782.0,201.0,-2.488281,0.664062,-9.953125,,,,,,,,,,
acc,1778672782.0,201.0,-2.488281,0.585938,-9.800781,,,,,,,,,,
acc,1778672782.0,201.0,-2.527344,0.320312,-9.796875,,,,,,,,,,
acc,1778672782.0,201.0,-2.566406,0.433594,-9.917969,,,,,,,,,,
acc,1778672782.0,201.0,-2.488281,0.703125,-9.800781,,,,,,,,,,
acc,1778672782.0,201.0,-2.375,0.777344,-9.648438,,,,,,,,,,
acc,1778672782.0,201.0,-2.375,0.777344,-9.730469,,,,,,,,,,
acc,1778672782.0,201.0,-2.375,0.777344,-9.730469,,,,,,,,,,
acc,1778672782.0,201.0,-2.488281,0.855469,-9.839844,,,,,,,,,,
acc,1778672782.0,201.0,-2.410156,0.664062,-9.800781,,,,,,,,,,
acc,1778672782.0,201.0,-2.375,0.664062,-9.800781,,,,,,,,,,
acc,1778672782.0,201.0,-2.335938,0.894531,-9.875,,,,,,,,,,
acc,1778672782.0,201.0,-2.296875,0.550781,-9.726562,,,,,,,,,,
acc,1778672782.0,201.0,-2.335938,0.550781,-9.875,,,,,,,,,,
acc,1778672782.0,201.0,-2.410156,0.664062,-9.800781,,,,,,,,,,
acc,1778672782.0,201.0,-2.449219,0.777344,-9.726562,,,,,,,,,,
acc,1778672782.0,201.0,-2.410156,0.855469,-9.917969,,,,,,,,,,
acc,1778672782.0,201.0,-2.296875,0.703125,-9.761719,,,,,,,,,,
acc,1778672782.0,201.0,-2.375,0.585938,-9.757812,,,,,,,,,,
acc,1778672782.0,201.0,-2.375,0.742188,-9.835938,,,,,,,,,,
acc,1778672782.0,201.0,-2.410156,0.855469,-9.761719,,,,,,,,,,
acc,1778672782.0,201.0,-2.335938,0.855469,-9.917969,,,,,,,,,,
acc,1778672782.0,201.0,-2.183594,0.703125,-9.691406,,,,,,,,,,
acc,1778672782.0,201.0,-2.21875,0.703125,-9.875,,,,,,,,,,
acc,1778672782.0,201.0,-2.335938,0.816406,-9.796875,,,,,,,,,,
acc,1778672782.0,201.0,-2.296875,0.855469,-9.757812,,,,,,,,,,
acc,1778672782.0,201.0,-2.296875,0.816406,-9.800781,,,,,,,,,,
acc,1778672782.0,201.0,-2.183594,0.894531,-9.953125,,,,,,,,,,
acc,1778672782.0,201.0,-2.183594,0.742188,-9.691406,,,,,,,,,,
acc,1778672782.0,201.0,-2.257812,0.855469,-10.070312,,,,,,,,,,
acc,1778672782.0,201.0,-2.296875,0.933594,-9.839844,,,,,,,,,,
acc,1778672782.0,201.0,-2.335938,0.96875,-9.953125,,,,,,,,,,
acc,1778672782.0,201.0,-2.296875,0.894531,-9.996094,,,,,,,,,,
acc,1778672782.0,201.0,-2.335938,0.933594,-9.914062,,,,,,,,,,
acc,1778672782.0,201.0,-2.375,0.816406,-10.113281,,,,,,,,,,
acc,1778672782.0,201.0,-2.375,0.855469,-9.839844,,,,,,,,,,
acc,1778672782.0,201.0,-2.449219,0.855469,-9.992188,,,,,,,,,,
acc,1778672782.0,201.0,-2.375,0.894531,-10.074219,,,,,,,,,,
acc,1778672782.0,201.0,-2.375,1.085938,-9.800781,,,,,,,,,,
acc,1778672782.0,201.0,-2.335938,0.933594,-10.109375,,,,,,,,,,
acc,1778672782.0,201.0,-2.296875,0.933594,-9.917969,,,,,,,,,,
acc,1778672782.0,201.0,-2.296875,0.855469,-9.992188,,,,,,,,,,
acc,1778672782.0,201.0,-2.296875,0.933594,-10.113281,,,,,,,,,,
acc,1778672782.0,201.0,-2.296875,0.894531,-9.996094,,,,,,,,,,
acc,1778672782.0,201.0,-2.335938,0.894531,-10.109375,,,,,,,,,,
acc,1778672782.0,201.0,-2.335938,0.855469,-10.070312,,,,,,,,,,
acc,1778672782.0,201.0,-2.296875,0.96875,-10.035156,,,,,,,,,,
acc,1778672782.0,201.0,-2.375,0.933594,-9.914062,,,,,,,,,,
acc,1778672782.0,201.0,-2.296875,0.855469,-10.074219,,,,,,,,,,
acc,1778672782.0,201.0,-2.296875,0.933594,-9.957031,,,,,,,,,,
acc,1778672782.0,201.0,-2.21875,0.894531,-10.03125,,,,,,,,,,
acc,1778672782.0,201.0,-2.183594,0.933594,-9.875,,,,,,,,,,
acc,1778672782.0,201.0,-2.296875,1.007812,-9.917969,,,,,,,,,,
acc,1778672782.0,201.0,-2.296875,1.085938,-9.957031,,,,,,,,,,
acc,1778672782.0,201.0,-2.257812,1.125,-9.800781,,,,,,,,,,
acc,1778672782.0,201.0,-2.21875,1.160156,-9.757812,,,,,,,,,,
acc,1778672782.0,201.0,-2.21875,1.277344,-9.800781,,,,,,,,,,
acc,1778672782.0,201.0,-2.21875,1.277344,-9.835938,,,,,,,,,,
acc,1778672782.0,201.0,-2.257812,1.160156,-9.648438,,,,,,,,,,
acc,1778672782.0,201.0,-2.21875,1.046875,-9.6875,,,,,,,,,,
acc,1778672782.0,201.0,-2.257812,1.046875,-9.613281,,,,,,,,,,
acc,1778672782.0,201.0,-2.183594,1.125,-9.757812,,,,,,,,,,
acc,1778672782.0,201.0,-2.144531,1.160156,-9.574219,,,,,,,,,,
acc,1778672782.0,201.0,-2.21875,1.085938,-9.53125,,,,,,,,,,
acc,1778672782.0,201.0,-2.21875,1.199219,-9.726562,,,,,,,,,,
acc,1778672782.0,201.0,-2.296875,1.351562,-9.570312,,,,,,,,,,
acc,1778672782.0,201.0,-2.335938,1.238281,-9.609375,,,,,,,,,,
acc,1778672782.0,201.0,-2.21875,1.238281,-9.730469,,,,,,,,,,
acc,1778672782.0,201.0,-2.183594,1.160156,-9.53125,,,,,,,,,,
acc,1778672782.0,201.0,-2.257812,1.277344,-9.492188,,,,,,,,,,
acc,1778672782.0,201.0,-2.335938,1.238281,-9.574219,,,,,,,,,,
acc,1778672782.0,201.0,-2.257812,1.351562,-9.574219,,,,,,,,,,
acc,1778672782.0,201.0,-2.257812,1.390625,-9.417969,,,,,,,,,,
acc,1778672782.0,201.0,-2.183594,1.316406,-9.496094,,,,,,,,,,
acc,1778672782.0,201.0,-2.257812,1.351562,-9.453125,,,,,,,,,,
acc,1778672782.0,201.0,-2.257812,1.390625,-9.535156,,,,,,,,,,
acc,1778672782.0,201.0,-2.257812,1.351562,-9.453125,,,,,,,,,,
acc,1778672783.0,202.0,-2.183594,1.199219,-9.535156,,,,,,,,,,
acc,1778672783.0,202.0,-2.183594,1.160156,-9.53125,,,,,,,,,,
acc,1778672783.0,202.0,-2.183594,1.277344,-9.609375,,,,,,,,,,
acc,1778672783.0,202.0,-2.144531,1.007812,-9.574219,,,,,,,,,,
acc,1778672783.0,202.0,-2.027344,1.199219,-9.570312,,,,,,,,,,
acc,1778672783.0,202.0,-2.027344,1.160156,-9.492188,,,,,,,,,,
acc,1778672783.0,202.0,-2.027344,1.007812,-9.730469,,,,,,,,,,
acc,1778672783.0,202.0,-1.992188,1.046875,-9.496094,,,,,,,,,,
acc,1778672783.0,202.0,-1.914062,1.351562,-9.574219,,,,,,,,,,
acc,1778672783.0,202.0,-1.914062,1.277344,-9.800781,,,,,,,,,,
acc,1778672783.0,202.0,-1.914062,1.277344,-9.492188,,,,,,,,,,
acc,1778672783.0,202.0,-1.914062,1.351562,-9.875,,,,,,,,,,
acc,1778672783.0,202.0,-1.992188,1.277344,-9.757812,,,,,,,,,,
acc,1778672783.0,202.0,-1.992188,1.316406,-9.761719,,,,,,,,,,
acc,1778672783.0,202.0,-2.027344,1.351562,-9.914062,,,,,,,,,,
acc,1778672783.0,202.0,-1.914062,1.160156,-9.914062,,,,,,,,,,
acc,1778672783.0,202.0,-1.953125,1.277344,-9.757812,,,,,,,,,,
acc,1778672783.0,202.0,-1.953125,1.160156,-9.953125,,,,,,,,,,
acc,1778672783.0,202.0,-1.953125,1.046875,-9.726562,,,,,,,,,,
acc,1778672783.0,202.0,-1.992188,1.125,-10.03125,,,,,,,,,,
acc,1778672783.0,202.0,-1.953125,1.277344,-9.992188,,,,,,,,,,
acc,1778672783.0,202.0,-1.992188,1.351562,-9.953125,,,,,,,,,,
acc,1778672783.0,202.0,-2.027344,1.316406,-10.152344,,,,,,,,,,
acc,1778672783.0,202.0,-1.875,1.390625,-9.996094,,,,,,,,,,
acc,1778672783.0,202.0,-1.953125,1.429688,-9.996094,,,,,,,,,,
acc,1778672783.0,202.0,-1.953125,1.351562,-10.148438,,,,,,,,,,
acc,1778672783.0,202.0,-1.992188,1.316406,-10.179688,,,,,,,,,,
acc,1778672783.0,202.0,-1.953125,1.316406,-10.261719,,,,,,,,,,
acc,1778672783.0,202.0,-1.914062,1.125,-10.074219,,,,,,,,,,
acc,1778672783.0,202.0,-1.835938,1.046875,-10.296875,,,,,,,,,,
acc,1778672783.0,202.0,-1.953125,1.007812,-10.109375,,,,,,,,,,
acc,1778672783.0,202.0,-1.992188,1.085938,-10.300781,,,,,,,,,,
acc,1778672783.0,202.0,-1.992188,1.046875,-10.113281,,,,,,,,,,
acc,1778672783.0,202.0,-2.027344,1.160156,-10.109375,,,,,,,,,,
acc,1778672783.0,202.0,-2.027344,1.046875,-10.070312,,,,,,,,,,
acc,1778672783.0,202.0,-2.066406,0.933594,-10.179688,,,,,,,,,,
acc,1778672783.0,202.0,-2.027344,1.046875,-10.070312,,,,,,,,,,
acc,1778672783.0,202.0,-1.914062,1.085938,-10.375,,,,,,,,,,
acc,1778672783.0,202.0,-1.914062,1.125,-10.109375,,,,,,,,,,
acc,1778672783.0,202.0,-1.914062,1.199219,-10.222656,,,,,,,,,,
acc,1778672783.0,202.0,-1.914062,1.199219,-10.179688,,,,,,,,,,
acc,1778672783.0,202.0,-1.875,1.238281,-10.148438,,,,,,,,,,
acc,1778672783.0,202.0,-1.875,1.277344,-10.21875,,,,,,,,,,
acc,1778672783.0,202.0,-1.835938,1.351562,-10.03125,,,,,,,,,,
acc,1778672783.0,202.0,-1.875,1.199219,-10.113281,,,,,,,,,,
acc,1778672783.0,202.0,-1.800781,1.238281,-9.914062,,,,,,,,,,
acc,1778672783.0,202.0,-1.800781,1.429688,-10.113281,,,,,,,,,,
acc,1778672783.0,202.0,-1.722656,1.351562,-10.035156,,,,,,,,,,
acc,1778672783.0,202.0,-1.761719,1.390625,-10.03125,,,,,,,,,,
acc,1778672783.0,202.0,-1.835938,1.199219,-10.070312,,,,,,,,,,
acc,1778672783.0,202.0,-1.800781,1.199219,-9.839844,,,,,,,,,,
acc,1778672783.0,202.0,-1.835938,1.351562,-9.914062,,,,,,,,,,
acc,1778672783.0,202.0,-1.683594,1.199219,-9.761719,,,,,,,,,,
acc,1778672783.0,202.0,-1.644531,1.429688,-9.878906,,,,,,,,,,
acc,1778672783.0,202.0,-1.722656,1.429688,-9.835938,,,,,,,,,,
acc,1778672783.0,202.0,-1.761719,1.429688,-9.757812,,,,,,,,,,
acc,1778672783.0,202.0,-1.683594,1.46875,-9.757812,,,,,,,,,,
acc,1778672783.0,202.0,-1.605469,1.621094,-9.613281,,,,,,,,,,
acc,1778672783.0,202.0,-1.570312,1.46875,-9.6875,,,,,,,,,,
acc,1778672783.0,202.0,-1.644531,1.429688,-9.570312,,,,,,,,,,
acc,1778672783.0,202.0,-1.800781,1.507812,-9.304688,,,,,,,,,,
acc,1778672783.0,202.0,-1.722656,1.582031,-9.6875,,,,,,,,,,
acc,1778672783.0,202.0,-1.644531,1.351562,-9.347656,,,,,,,,,,
acc,1778672783.0,202.0,-1.722656,1.429688,-9.453125,,,,,,,,,,
acc,1778672783.0,202.0,-1.800781,1.46875,-9.609375,,,,,,,,,,
acc,1778672783.0,202.0,-1.914062,1.390625,-9.113281,,,,,,,,,,
acc,1778672783.0,202.0,-1.914062,1.46875,-9.347656,,,,,,,,,,
acc,1778672783.0,202.0,-1.835938,1.582031,-9.53125,,,,,,,,,,
acc,1778672783.0,202.0,-1.875,1.699219,-9.378906,,,,,,,,,,
acc,1778672783.0,202.0,-1.914062,1.890625,-9.496094,,,,,,,,,,
acc,1778672783.0,202.0,-2.027344,2.003906,-9.53125,,,,,,,,,,
acc,1778672783.0,202.0,-1.953125,1.8125,-9.609375,,,,,,,,,,
acc,1778672783.0,202.0,-1.914062,1.660156,-9.609375,,,,,,,,,,
acc,1778672783.0,202.0,-1.992188,1.542969,-9.609375,,,,,,,,,,
acc,1778672783.0,202.0,-2.21875,1.660156,-9.691406,,,,,,,,,,
acc,1778672783.0,202.0,-2.257812,1.660156,-9.730469,,,,,,,,,,
acc,1778672783.0,202.0,-2.105469,1.429688,-9.691406,,,,,,,,,,
acc,1778672783.0,202.0,-2.066406,1.390625,-9.609375,,,,,,,,,,
acc,1778672783.0,202.0,-2.066406,1.390625,-9.800781,,,,,,,,,,
acc,1778672783.0,202.0,-2.066406,1.351562,-9.726562,,,,,,,,,,
acc,1778672783.0,202.0,-2.105469,1.351562,-9.839844,,,,,,,,,,
acc,1778672783.0,202.0,-2.105469,1.507812,-9.878906,,,,,,,,,,
acc,1778672783.0,202.0,-2.183594,1.738281,-9.835938,,,,,,,,,,
acc,1778672783.0,202.0,-2.21875,1.8125,-9.835938,,,,,,,,,,
acc,1778672783.0,202.0,-2.105469,1.8125,-9.796875,,,,,,,,,,
acc,1778672783.0,202.0,-2.21875,1.851562,-9.691406,,,,,,,,,,
acc,1778672783.0,202.0,-2.183594,1.660156,-9.914062,,,,,,,,,,
acc,1778672783.0,202.0,-2.066406,1.621094,-9.878906,,,,,,,,,,
acc,1778672783.0,202.0,-2.105469,1.542969,-9.878906,,,,,,,,,,
acc,1778672783.0,202.0,-2.105469,1.507812,-10.070312,,,,,,,,,,
acc,1778672783.0,202.0,-2.144531,1.582031,-9.800781,,,,,,,,,,
acc,1778672783.0,202.0,-2.183594,1.582031,-9.953125,,,,,,,,,,
acc,1778672783.0,202.0,-2.027344,1.46875,-9.953125,,,,,,,,,,
acc,1778672783.0,202.0,-1.992188,1.390625,-9.957031,,,,,,,,,,
acc,1778672783.0,202.0,-2.066406,1.351562,-9.917969,,,,,,,,,,
acc,1778672783.0,202.0,-2.027344,1.316406,-9.839844,,,,,,,,,,
acc,1778672783.0,202.0,-1.953125,1.582031,-9.757812,,,,,,,,,,
acc,1778672783.0,202.0,-1.953125,1.738281,-9.914062,,,,,,,,,,
acc,1778672783.0,202.0,-2.027344,1.738281,-9.835938,,,,,,,,,,
acc,1778672783.0,202.0,-2.21875,1.699219,-9.839844,,,,,,,,,,
acc,1778672783.0,202.0,-2.144531,1.542969,-9.992188,,,,,,,,,,
acc,1778672783.0,202.0,-2.105469,1.429688,-9.730469,,,,,,,,,,
acc,1778672783.0,202.0,-2.144531,1.351562,-9.992188,,,,,,,,,,
acc,1778672783.0,202.0,-2.144531,1.429688,-9.878906,,,,,,,,,,
acc,1778672783.0,202.0,-1.953125,1.429688,-9.957031,,,,,,,,,,
acc,1778672783.0,202.0,-1.992188,1.429688,-9.796875,,,,,,,,,,
acc,1778672783.0,202.0,-1.992188,1.429688,-9.957031,,,,,,,,,,
acc,1778672783.0,202.0,-1.992188,1.429688,-9.996094,,,,,,,,,,
acc,1778672783.0,202.0,-1.992188,1.390625,-9.996094,,,,,,,,,,
acc,1778672783.0,202.0,-1.914062,1.316406,-9.957031,,,,,,,,,,
acc,1778672783.0,202.0,-1.914062,1.429688,-10.222656,,,,,,,,,,
acc,1778672783.0,202.0,-1.875,1.582031,-9.992188,,,,,,,,,,
acc,1778672783.0,202.0,-1.953125,1.738281,-10.109375,,,,,,,,,,
acc,1778672783.0,202.0,-2.066406,1.890625,-10.21875,,,,,,,,,,
acc,1778672783.0,202.0,-2.066406,1.929688,-9.992188,,,,,,,,,,
acc,1778672783.0,202.0,-1.992188,1.964844,-10.21875,,,,,,,,,,
acc,1778672783.0,202.0,-1.914062,1.699219,-9.917969,,,,,,,,,,
acc,1778672783.0,202.0,-1.914062,1.429688,-9.917969,,,,,,,,,,
acc,1778672783.0,202.0,-1.953125,1.46875,-10.148438,,,,,,,,,,
acc,1778672783.0,202.0,-1.875,1.429688,-9.917969,,,,,,,,,,
acc,1778672783.0,202.0,-1.835938,1.390625,-10.070312,,,,,,,,,,
acc,1778672783.0,202.0,-1.835938,1.429688,-9.839844,,,,,,,,,,
acc,1778672783.0,202.0,-1.914062,1.542969,-9.691406,,,,,,,,,,
acc,1778672783.0,202.0,-1.914062,1.738281,-10.03125,,,,,,,,,,
acc,1778672783.0,202.0,-1.875,1.890625,-9.652344,,,,,,,,,,
acc,1778672783.0,202.0,-1.800781,1.851562,-9.875,,,,,,,,,,
acc,1778672784.0,203.0,-1.722656,1.699219,-10.074219,,,,,,,,,,
acc,1778672784.0,203.0,-1.722656,1.929688,-9.53125,,,,,,,,,,
acc,1778672784.0,203.0,-1.761719,1.890625,-9.992188,,,,,,,,,,
acc,1778672784.0,203.0,-1.414062,1.621094,-9.992188,,,,,,,,,,
acc,1778672784.0,203.0,-1.570312,1.582031,-9.570312,,,,,,,,,,
acc,1778672784.0,203.0,-1.722656,1.542969,-10.035156,,,,,,,,,,
acc,1778672784.0,203.0,-1.605469,1.390625,-9.757812,,,,,,,,,,
acc,1778672784.0,203.0,-1.570312,1.542969,-9.570312,,,,,,,,,,
acc,1778672784.0,203.0,-1.761719,1.507812,-9.957031,,,,,,,,,,
acc,1778672784.0,203.0,-1.761719,1.46875,-9.726562,,,,,,,,,,
acc,1778672784.0,203.0,-1.875,1.46875,-9.800781,,,,,,,,,,
acc,1778672784.0,203.0,-1.722656,1.621094,-9.726562,,,,,,,,,,
acc,1778672784.0,203.0,-1.683594,2.121094,-9.875,,,,,,,,,,
acc,1778672784.0,203.0,-1.835938,2.425781,-9.570312,,,,,,,,,,
acc,1778672784.0,203.0,-2.105469,2.730469,-9.726562,,,,,,,,,,
acc,1778672784.0,203.0,-1.953125,2.539062,-9.570312,,,,,,,,,,
acc,1778672784.0,203.0,-1.644531,2.195312,-9.453125,,,,,,,,,,
acc,1778672784.0,203.0,-1.570312,2.386719,-9.570312,,,,,,,,,,
acc,1778672784.0,203.0,-1.683594,2.121094,-9.648438,,,,,,,,,,
acc,1778672784.0,203.0,-1.644531,1.738281,-9.730469,,,,,,,,,,
acc,1778672784.0,203.0,-1.644531,1.929688,-9.761719,,,,,,,,,,
acc,1778672784.0,203.0,-1.683594,2.234375,-9.613281,,,,,,,,,,
acc,1778672784.0,203.0,-1.722656,2.347656,-9.652344,,,,,,,,,,
acc,1778672784.0,203.0,-1.605469,2.042969,-9.652344,,,,,,,,,,
acc,1778672784.0,203.0,-1.644531,1.890625,-9.535156,,,,,,,,,,
acc,1778672784.0,203.0,-1.835938,1.929688,-9.726562,,,,,,,,,,
acc,1778672784.0,203.0,-1.914062,2.082031,-9.757812,,,,,,,,,,
acc,1778672784.0,203.0,-1.835938,2.234375,-9.570312,,,,,,,,,,
acc,1778672784.0,203.0,-1.800781,2.386719,-9.757812,,,,,,,,,,
acc,1778672784.0,203.0,-1.800781,2.617188,-9.535156,,,,,,,,,,
acc,1778672784.0,203.0,-1.992188,2.425781,-9.535156,,,,,,,,,,
acc,1778672784.0,203.0,-1.953125,2.15625,-9.6875,,,,,,,,,,
acc,1778672784.0,203.0,-1.835938,2.003906,-9.648438,,,,,,,,,,
acc,1778672784.0,203.0,-1.761719,1.964844,-9.761719,,,,,,,,,,
acc,1778672784.0,203.0,-1.875,1.890625,-9.6875,,,,,,,,,,
acc,1778672784.0,203.0,-1.992188,1.890625,-9.652344,,,,,,,,,,
acc,1778672784.0,203.0,-1.835938,1.890625,-9.957031,,,,,,,,,,
acc,1778672784.0,203.0,-1.761719,1.851562,-10.035156,,,,,,,,,,
acc,1778672784.0,203.0,-2.027344,1.8125,-10.03125,,,,,,,,,,
acc,1778672784.0,203.0,-2.335938,1.699219,-10.070312,,,,,,,,,,
acc,1778672784.0,203.0,-2.183594,1.660156,-9.992188,,,,,,,,,,
acc,1778672784.0,203.0,-1.953125,1.582031,-9.914062,,,,,,,,,,
acc,1778672784.0,203.0,-1.800781,1.621094,-9.757812,,,,,,,,,,
acc,1778672784.0,203.0,-1.992188,1.621094,-9.730469,,,,,,,,,,
acc,1778672784.0,203.0,-2.105469,1.46875,-9.726562,,,,,,,,,,
acc,1778672784.0,203.0,-2.027344,1.390625,-9.652344,,,,,,,,,,
acc,1778672784.0,203.0,-1.953125,1.429688,-9.878906,,,,,,,,,,
acc,1778672784.0,203.0,-1.914062,1.429688,-9.996094,,,,,,,,,,
acc,1778672784.0,203.0,-2.066406,1.429688,-10.074219,,,,,,,,,,
acc,1778672784.0,203.0,-2.144531,1.429688,-10.113281,,,,,,,,,,
acc,1778672784.0,203.0,-1.953125,1.507812,-9.992188,,,,,,,,,,
acc,1778672784.0,203.0,-1.875,1.890625,-9.796875,,,,,,,,,,
acc,1778672784.0,203.0,-1.835938,2.082031,-9.835938,,,,,,,,,,
acc,1778672784.0,203.0,-1.992188,2.234375,-9.6875,,,,,,,,,,
acc,1778672784.0,203.0,-2.027344,1.699219,-9.878906,,,,,,,,,,
acc,1778672784.0,203.0,-1.953125,1.621094,-10.074219,,,,,,,,,,
acc,1778672784.0,203.0,-1.953125,1.851562,-9.953125,,,,,,,,,,
acc,1778672784.0,203.0,-2.105469,1.621094,-10.113281,,,,,,,,,,
acc,1778672784.0,203.0,-2.066406,1.851562,-10.179688,,,,,,,,,,
acc,1778672784.0,203.0,-2.027344,1.851562,-9.953125,,,,,,,,,,
acc,1778672784.0,203.0,-1.835938,1.8125,-10.375,,,,,,,,,,
acc,1778672784.0,203.0,-1.835938,1.773438,-9.839844,,,,,,,,,,
acc,1778672784.0,203.0,-1.875,2.042969,-9.953125,,,,,,,,,,
acc,1778672784.0,203.0,-2.066406,2.082031,-9.761719,,,,,,,,,,
acc,1778672784.0,203.0,-1.992188,2.15625,-10.035156,,,,,,,,,,
acc,1778672784.0,203.0,-1.875,2.121094,-9.800781,,,,,,,,,,
acc,1778672784.0,203.0,-1.914062,2.003906,-9.691406,,,,,,,,,,
acc,1778672784.0,203.0,-1.992188,2.425781,-9.6875,,,,,,,,,,
acc,1778672784.0,203.0,-1.914062,2.578125,-9.652344,,,,,,,,,,
acc,1778672784.0,203.0,-1.835938,2.425781,-9.878906,,,,,,,,,,
acc,1778672784.0,203.0,-1.835938,2.578125,-9.996094,,,,,,,,,,
acc,1778672784.0,203.0,-1.914062,2.425781,-10.152344,,,,,,,,,,
acc,1778672784.0,203.0,-1.914062,2.273438,-10.070312,,,,,,,,,,
acc,1778672784.0,203.0,-1.835938,2.386719,-10.335938,,,,,,,,,,
acc,1778672784.0,203.0,-1.800781,2.464844,-10.03125,,,,,,,,,,
acc,1778672784.0,203.0,-1.683594,2.578125,-10.070312,,,,,,,,,,
acc,1778672784.0,203.0,-1.761719,2.578125,-10.074219,,,,,,,,,,
acc,1778672784.0,203.0,-1.800781,2.578125,-10.070312,,,,,,,,,,
acc,1778672784.0,203.0,-1.683594,2.539062,-9.878906,,,,,,,,,,
acc,1778672784.0,203.0,-1.761719,2.65625,-9.800781,,,,,,,,,,
acc,1778672784.0,203.0,-1.761719,2.503906,-9.796875,,,,,,,,,,
acc,1778672784.0,203.0,-1.800781,2.347656,-9.875,,,,,,,,,,
acc,1778672784.0,203.0,-1.800781,2.347656,-9.835938,,,,,,,,,,
acc,1778672784.0,203.0,-1.875,2.386719,-10.03125,,,,,,,,,,
acc,1778672784.0,203.0,-1.875,2.234375,-10.113281,,,,,,,,,,
acc,1778672784.0,203.0,-1.992188,2.195312,-9.953125,,,,,,,,,,
acc,1778672784.0,203.0,-1.992188,2.234375,-10.035156,,,,,,,,,,
acc,1778672784.0,203.0,-1.875,2.121094,-9.914062,,,,,,,,,,
acc,1778672784.0,203.0,-1.875,2.15625,-9.6875,,,,,,,,,,
acc,1778672784.0,203.0,-1.835938,2.273438,-9.796875,,,,,,,,,,
acc,1778672784.0,203.0,-1.835938,1.964844,-9.691406,,,,,,,,,,
acc,1778672784.0,203.0,-1.722656,1.890625,-9.800781,,,,,,,,,,
acc,1778672784.0,203.0,-1.875,1.738281,-9.609375,,,,,,,,,,
acc,1778672784.0,203.0,-1.800781,1.582031,-10.03125,,,,,,,,,,
acc,1778672784.0,203.0,-1.683594,1.738281,-9.609375,,,,,,,,,,
acc,1778672784.0,203.0,-1.605469,2.003906,-9.796875,,,,,,,,,,
acc,1778672784.0,203.0,-1.683594,2.121094,-9.691406,,,,,,,,,,
acc,1778672784.0,203.0,-1.722656,1.964844,-9.839844,,,,,,,,,,
acc,1778672784.0,203.0,-1.644531,1.929688,-9.726562,,,,,,,,,,
acc,1778672784.0,203.0,-1.605469,1.851562,-9.917969,,,,,,,,,,
acc,1778672784.0,203.0,-1.683594,1.851562,-9.648438,,,,,,,,,,
acc,1778672784.0,203.0,-1.683594,1.929688,-9.839844,,,,,,,,,,
acc,1778672784.0,203.0,-1.683594,1.8125,-9.757812,,,,,,,,,,
acc,1778672784.0,203.0,-1.570312,1.738281,-9.6875,,,,,,,,,,
acc,1778672784.0,203.0,-1.644531,1.890625,-9.761719,,,,,,,,,,
acc,1778672784.0,203.0,-1.722656,2.503906,-9.652344,,,,,,,,,,
acc,1778672784.0,203.0,-1.683594,2.464844,-9.800781,,,,,,,,,,
acc,1778672784.0,203.0,-1.53125,2.425781,-9.957031,,,,,,,,,,
acc,1778672784.0,203.0,-1.570312,2.425781,-9.609375,,,,,,,,,,
acc,1778672784.0,203.0,-1.761719,2.425781,-10.183594,,,,,,,,,,
acc,1778672784.0,203.0,-1.683594,2.539062,-9.417969,,,,,,,,,,
acc,1778672784.0,203.0,-1.414062,2.042969,-9.992188,,,,,,,,,,
acc,1778672784.0,203.0,-1.414062,1.964844,-9.453125,,,,,,,,,,
acc,1778672784.0,203.0,-1.492188,2.273438,-9.613281,,,,,,,,,,
acc,1778672784.0,203.0,-1.570312,2.578125,-9.953125,,,,,,,,,,
acc,1778672784.0,203.0,-1.570312,2.847656,-9.457031,,,,,,,,,,
acc,1778672784.0,203.0,-1.683594,2.847656,-9.835938,,,,,,,,,,
acc,1778672784.0,203.0,-1.644531,2.960938,-9.917969,,,,,,,,,,
acc,1778672784.0,203.0,-1.683594,3.078125,-9.957031,,,,,,,,,,
acc,1778672784.0,203.0,-1.722656,2.847656,-9.996094,,,,,,,,,,
acc,1778672784.0,203.0,-1.800781,2.578125,-9.839844,,,,,,,,,,
acc,1778672784.0,203.0,-1.722656,2.195312,-10.070312,,,,,,,,,,
acc,1778672784.0,203.0,-1.644531,1.964844,-9.914062,,,,,,,,,,
acc,1778672784.0,203.0,-1.605469,2.15625,-9.648438,,,,,,,,,,
acc,1778672784.0,203.0,-1.570312,2.121094,-10.070312,,,,,,,,,,
acc,1778672784.0,203.0,-1.53125,2.3125,-9.574219,,,,,,,,,,
acc,1778672784.0,203.0,-1.570312,2.273438,-9.609375,,,,,,,,,,
acc,1778672785.0,204.0,-1.414062,2.195312,-9.835938,,,,,,,,,,
acc,1778672785.0,204.0,-1.300781,2.234375,-9.570312,,,,,,,,,,
acc,1778672785.0,204.0,-1.414062,2.3125,-9.800781,,,,,,,,,,
acc,1778672785.0,204.0,-1.378906,2.234375,-9.835938,,,,,,,,,,
acc,1778672785.0,204.0,-1.300781,2.273438,-9.570312,,,,,,,,,,
acc,1778672785.0,204.0,-1.378906,2.464844,-9.6875,,,,,,,,,,
acc,1778672785.0,204.0,-1.222656,2.425781,-9.757812,,,,,,,,,,
acc,1778672785.0,204.0,-1.261719,2.273438,-9.453125,,,,,,,,,,
acc,1778672785.0,204.0,-1.53125,2.234375,-9.652344,,,,,,,,,,
acc,1778672785.0,204.0,-1.378906,2.425781,-9.730469,,,,,,,,,,
acc,1778672785.0,204.0,-1.378906,2.15625,-9.492188,,,,,,,,,,
acc,1778672785.0,204.0,-1.453125,2.195312,-9.757812,,,,,,,,,,
acc,1778672785.0,204.0,-1.53125,2.121094,-9.730469,,,,,,,,,,
acc,1778672785.0,204.0,-1.53125,2.003906,-9.691406,,,,,,,,,,
acc,1778672785.0,204.0,-1.570312,2.347656,-9.726562,,,,,,,,,,
acc,1778672785.0,204.0,-1.453125,2.503906,-9.757812,,,,,,,,,,
acc,1778672785.0,204.0,-1.453125,2.539062,-9.570312,,,,,,,,,,
acc,1778672785.0,204.0,-1.378906,2.3125,-9.652344,,,,,,,,,,
acc,1778672785.0,204.0,-1.300781,2.3125,-9.609375,,,,,,,,,,
acc,1778672785.0,204.0,-1.261719,2.273438,-9.800781,,,,,,,,,,
acc,1778672785.0,204.0,-1.261719,2.234375,-9.953125,,,,,,,,,,
acc,1778672785.0,204.0,-1.53125,2.082031,-9.648438,,,,,,,,,,
acc,1778672785.0,204.0,-1.492188,2.121094,-10.109375,,,,,,,,,,
acc,1778672785.0,204.0,-1.261719,2.273438,-9.730469,,,,,,,,,,
acc,1778672785.0,204.0,-1.222656,2.003906,-9.6875,,,,,,,,,,
acc,1778672785.0,204.0,-1.261719,2.195312,-9.839844,,,,,,,,,,
acc,1778672785.0,204.0,-1.261719,2.425781,-9.875,,,,,,,,,,
acc,1778672785.0,204.0,-1.261719,2.503906,-9.796875,,,,,,,,,,
acc,1778672785.0,204.0,-1.222656,2.539062,-9.757812,,,,,,,,,,
acc,1778672785.0,204.0,-1.070312,2.347656,-10.296875,,,,,,,,,,
acc,1778672785.0,204.0,-1.148438,2.273438,-9.613281,,,,,,,,,,
acc,1778672785.0,204.0,-1.261719,2.347656,-9.917969,,,,,,,,,,
acc,1778672785.0,204.0,-1.1875,2.503906,-10.222656,,,,,,,,,,
acc,1778672785.0,204.0,-1.222656,2.769531,-9.953125,,,,,,,,,,
acc,1778672785.0,204.0,-1.070312,2.769531,-10.074219,,,,,,,,,,
acc,1778672785.0,204.0,-0.996094,2.769531,-9.453125,,,,,,,,,,
acc,1778672785.0,204.0,-0.957031,2.65625,-9.648438,,,,,,,,,,
acc,1778672785.0,204.0,-0.917969,2.695312,-9.6875,,,,,,,,,,
acc,1778672785.0,204.0,-0.917969,2.730469,-9.417969,,,,,,,,,,
acc,1778672785.0,204.0,-0.996094,2.578125,-9.835938,,,,,,,,,,
acc,1778672785.0,204.0,-1.148438,2.808594,-9.726562,,,,,,,,,,
acc,1778672785.0,204.0,-1.300781,3.152344,-9.761719,,,,,,,,,,
acc,1778672785.0,204.0,-1.300781,3.152344,-9.917969,,,,,,,,,,
acc,1778672785.0,204.0,-1.261719,3.152344,-9.835938,,,,,,,,,,
acc,1778672785.0,204.0,-1.261719,3.191406,-9.839844,,,,,,,,,,
acc,1778672785.0,204.0,-1.339844,3.34375,-9.953125,,,,,,,,,,
acc,1778672785.0,204.0,-1.1875,3.269531,-9.953125,,,,,,,,,,
acc,1778672785.0,204.0,-1.109375,3.191406,-9.730469,,,,,,,,,,
acc,1778672785.0,204.0,-1.261719,3.152344,-9.875,,,,,,,,,,
acc,1778672785.0,204.0,-1.300781,3.039062,-10.152344,,,,,,,,,,
acc,1778672785.0,204.0,-1.222656,3.117188,-9.914062,,,,,,,,,,
acc,1778672785.0,204.0,-1.1875,3.039062,-9.609375,,,,,,,,,,
acc,1778672785.0,204.0,-1.222656,2.847656,-9.839844,,,,,,,,,,
acc,1778672785.0,204.0,-1.03125,2.464844,-9.492188,,,,,,,,,,
acc,1778672785.0,204.0,-1.1875,2.195312,-9.796875,,,,,,,,,,
acc,1778672785.0,204.0,-1.109375,2.347656,-9.414062,,,,,,,,,,
acc,1778672785.0,204.0,-1.109375,2.65625,-9.761719,,,,,,,,,,
acc,1778672785.0,204.0,-1.148438,2.578125,-9.613281,,,,,,,,,,
acc,1778672785.0,204.0,-1.109375,3.117188,-9.6875,,,,,,,,,,
acc,1778672785.0,204.0,-1.261719,3.152344,-10.109375,,,,,,,,,,
acc,1778672785.0,204.0,-1.378906,3.117188,-9.800781,,,,,,,,,,
acc,1778672785.0,204.0,-1.453125,3.0,-9.726562,,,,,,,,,,
acc,1778672785.0,204.0,-1.300781,2.808594,-10.070312,,,,,,,,,,
acc,1778672785.0,204.0,-1.222656,2.847656,-9.761719,,,,,,,,,,
acc,1778672785.0,204.0,-1.339844,2.925781,-9.691406,,,,,,,,,,
acc,1778672785.0,204.0,-1.453125,2.617188,-9.917969,,,,,,,,,,
acc,1778672785.0,204.0,-1.378906,2.539062,-9.691406,,,,,,,,,,
acc,1778672785.0,204.0,-1.300781,2.847656,-9.992188,,,,,,,,,,
acc,1778672785.0,204.0,-1.453125,2.925781,-10.070312,,,,,,,,,,
acc,1778672785.0,204.0,-1.453125,2.769531,-9.957031,,,,,,,,,,
acc,1778672785.0,204.0,-1.339844,2.617188,-10.074219,,,,,,,,,,
acc,1778672785.0,204.0,-1.261719,2.503906,-10.070312,,,,,,,,,,
acc,1778672785.0,204.0,-1.261719,2.042969,-10.035156,,,,,,,,,,
acc,1778672785.0,204.0,-1.222656,2.15625,-10.335938,,,,,,,,,,
acc,1778672785.0,204.0,-1.378906,2.425781,-9.914062,,,,,,,,,,
acc,1778672785.0,204.0,-1.222656,3.117188,-10.148438,,,,,,,,,,
acc,1778672785.0,204.0,-1.378906,2.886719,-9.957031,,,,,,,,,,
acc,1778672785.0,204.0,-1.53125,2.730469,-10.109375,,,,,,,,,,
acc,1778672785.0,204.0,-1.414062,3.117188,-10.113281,,,,,,,,,,
acc,1778672785.0,204.0,-1.378906,2.769531,-9.992188,,,,,,,,,,
acc,1778672785.0,204.0,-1.300781,3.0,-10.113281,,,,,,,,,,
acc,1778672785.0,204.0,-1.339844,3.117188,-9.835938,,,,,,,,,,
acc,1778672785.0,204.0,-1.339844,3.308594,-10.109375,,,,,,,,,,
acc,1778672785.0,204.0,-1.339844,3.5,-9.492188,,,,,,,,,,
acc,1778672785.0,204.0,-1.222656,3.191406,-9.917969,,,,,,,,,,
acc,1778672785.0,204.0,-1.222656,2.847656,-9.6875,,,,,,,,,,
acc,1778672785.0,204.0,-1.261719,3.117188,-9.875,,,,,,,,,,
acc,1778672785.0,204.0,-1.261719,3.078125,-9.835938,,,,,,,,,,
acc,1778672785.0,204.0,-1.300781,2.886719,-9.730469,,,,,,,,,,
acc,1778672785.0,204.0,-1.222656,2.730469,-10.179688,,,,,,,,,,
acc,1778672785.0,204.0,-1.148438,2.539062,-9.839844,,,,,,,,,,
acc,1778672785.0,204.0,-1.1875,2.886719,-9.839844,,,,,,,,,,
acc,1778672785.0,204.0,-1.109375,2.695312,-9.730469,,,,,,,,,,
acc,1778672785.0,204.0,-1.148438,2.808594,-9.878906,,,,,,,,,,
acc,1778672785.0,204.0,-1.070312,3.117188,-9.691406,,,,,,,,,,
acc,1778672785.0,204.0,-0.996094,3.0,-9.953125,,,,,,,,,,
acc,1778672785.0,204.0,-1.03125,3.0,-9.726562,,,,,,,,,,
acc,1778672785.0,204.0,-1.222656,2.769531,-9.914062,,,,,,,,,,
acc,1778672785.0,204.0,-1.148438,2.695312,-10.03125,,,,,,,,,,
acc,1778672785.0,204.0,-1.1875,2.769531,-9.757812,,,,,,,,,,
acc,1778672785.0,204.0,-1.1875,2.695312,-10.035156,,,,,,,,,,
acc,1778672785.0,204.0,-1.1875,2.847656,-9.761719,,,,,,,,,,
acc,1778672785.0,204.0,-1.1875,3.039062,-9.492188,,,,,,,,,,
acc,1778672785.0,204.0,-1.109375,3.039062,-9.957031,,,,,,,,,,
acc,1778672785.0,204.0,-0.996094,3.039062,-9.492188,,,,,,,,,,
acc,1778672785.0,204.0,-1.109375,2.925781,-9.726562,,,,,,,,,,
acc,1778672785.0,204.0,-1.261719,2.808594,-9.992188,,,,,,,,,,
acc,1778672785.0,204.0,-1.148438,2.808594,-9.6875,,,,,,,,,,
acc,1778672785.0,204.0,-1.261719,3.230469,-9.761719,,,,,,,,,,
acc,1778672785.0,204.0,-1.1875,3.269531,-9.800781,,,,,,,,,,
acc,1778672785.0,204.0,-1.378906,3.117188,-9.757812,,,,,,,,,,
acc,1778672785.0,204.0,-1.570312,3.230469,-9.796875,,,,,,,,,,
acc,1778672785.0,204.0,-1.53125,3.230469,-10.109375,,,,,,,,,,
acc,1778672785.0,204.0,-1.453125,3.269531,-9.761719,,,,,,,,,,
acc,1778672785.0,204.0,-1.492188,2.886719,-9.800781,,,,,,,,,,
acc,1778672785.0,204.0,-1.605469,2.960938,-9.800781,,,,,,,,,,
acc,1778672785.0,204.0,-1.414062,2.925781,-9.839844,,,,,,,,,,
acc,1778672785.0,204.0,-1.339844,2.847656,-9.796875,,,,,,,,,,
acc,1778672785.0,204.0,-1.414062,2.808594,-9.6875,,,,,,,,,,
acc,1778672785.0,204.0,-1.339844,2.539062,-10.03125,,,,,,,,,,
acc,1778672785.0,204.0,-1.261719,2.769531,-9.574219,,,,,,,,,,
acc,1778672785.0,204.0,-1.222656,2.695312,-9.652344,,,,,,,,,,
acc,1778672785.0,204.0,-1.148438,2.847656,-9.992188,,,,,,,,,,
acc,1778672785.0,204.0,-1.339844,2.925781,-9.574219,,,,,,,,,,
acc,1778672785.0,204.0,-1.300781,2.730469,-9.953125,,,,,,,,,,
acc,1778672785.0,204.0,-1.109375,2.730469,-9.609375,,,,,,,,,,
acc,1778672785.0,204.0,-1.109375,2.886719,-9.648438,,,,,,,,,,
acc,1778672786.0,205.0,-1.1875,3.039062,-9.914062,,,,,,,,,,
acc,1778672786.0,205.0,-1.1875,3.117188,-9.609375,,,,,,,,,,
acc,1778672786.0,205.0,-1.1875,2.960938,-9.691406,,,,,,,,,,
acc,1778672786.0,205.0,-1.261719,3.078125,-9.875,,,,,,,,,,
acc,1778672786.0,205.0,-1.148438,2.65625,-9.726562,,,,,,,,,,
acc,1778672786.0,205.0,-1.148438,2.730469,-9.914062,,,,,,,,,,
acc,1778672786.0,205.0,-1.148438,2.695312,-9.730469,,,,,,,,,,
acc,1778672786.0,205.0,-1.1875,2.695312,-10.035156,,,,,,,,,,
acc,1778672786.0,205.0,-1.261719,3.0,-9.875,,,,,,,,,,
acc,1778672786.0,205.0,-1.339844,3.230469,-9.996094,,,,,,,,,,
acc,1778672786.0,205.0,-1.222656,3.191406,-9.917969,,,,,,,,,,
acc,1778672786.0,205.0,-1.222656,3.078125,-9.730469,,,,,,,,,,
acc,1778672786.0,205.0,-1.222656,2.925781,-10.074219,,,,,,,,,,
acc,1778672786.0,205.0,-1.261719,3.0,-9.730469,,,,,,,,,,
acc,1778672786.0,205.0,-1.300781,3.191406,-9.992188,,,,,,,,,,
acc,1778672786.0,205.0,-1.339844,3.269531,-9.953125,,,,,,,,,,
acc,1778672786.0,205.0,-1.339844,3.34375,-9.875,,,,,,,,,,
acc,1778672786.0,205.0,-1.414062,3.382812,-9.996094,,,,,,,,,,
acc,1778672786.0,205.0,-1.339844,3.078125,-9.835938,,,,,,,,,,
acc,1778672786.0,205.0,-1.378906,3.191406,-9.996094,,,,,,,,,,
acc,1778672786.0,205.0,-1.453125,2.925781,-9.796875,,,,,,,,,,
acc,1778672786.0,205.0,-1.378906,2.925781,-9.914062,,,,,,,,,,
acc,1778672786.0,205.0,-1.300781,3.152344,-9.613281,,,,,,,,,,
acc,1778672786.0,205.0,-1.261719,3.0,-9.730469,,,,,,,,,,
acc,1778672786.0,205.0,-1.109375,2.808594,-9.917969,,,,,,,,,,
acc,1778672786.0,205.0,-1.070312,2.960938,-9.414062,,,,,,,,,,
acc,1778672786.0,205.0,-1.148438,3.230469,-9.757812,,,,,,,,,,
acc,1778672786.0,205.0,-1.03125,3.0,-9.6875,,,,,,,,,,
acc,1778672786.0,205.0,-0.917969,2.960938,-9.574219,,,,,,,,,,
acc,1778672786.0,205.0,-1.03125,3.117188,-9.761719,,,,,,,,,,
acc,1778672786.0,205.0,-1.03125,3.117188,-9.761719,,,,,,,,,,
acc,1778672786.0,205.0,-1.070312,3.191406,-9.613281,,,,,,,,,,
acc,1778672786.0,205.0,-1.148438,3.117188,-9.917969,,,,,,,,,,
acc,1778672786.0,205.0,-1.1875,2.925781,-9.648438,,,,,,,,,,
acc,1778672786.0,205.0,-1.222656,2.925781,-9.835938,,,,,,,,,,
acc,1778672786.0,205.0,-1.261719,2.847656,-9.726562,,,,,,,,,,
acc,1778672786.0,205.0,-1.378906,2.847656,-9.726562,,,,,,,,,,
acc,1778672786.0,205.0,-1.453125,3.230469,-9.800781,,,,,,,,,,
acc,1778672786.0,205.0,-1.414062,3.460938,-9.796875,,,,,,,,,,
acc,1778672786.0,205.0,-1.453125,3.382812,-9.726562,,,,,,,,,,
acc,1778672786.0,205.0,-1.492188,3.421875,-9.875,,,,,,,,,,
acc,1778672786.0,205.0,-1.453125,3.269531,-9.726562,,,,,,,,,,
acc,1778672786.0,205.0,-1.414062,3.34375,-9.761719,,,,,,,,,,
acc,1778672786.0,205.0,-1.378906,3.191406,-9.796875,,,,,,,,,,
acc,1778672786.0,205.0,-1.339844,3.269531,-9.800781,,,,,,,,,,
acc,1778672786.0,205.0,-1.414062,3.308594,-9.761719,,,,,,,,,,
acc,1778672786.0,205.0,-1.300781,3.308594,-9.957031,,,,,,,,,,
acc,1778672786.0,205.0,-1.378906,3.421875,-9.652344,,,,,,,,,,
acc,1778672786.0,205.0,-1.378906,3.308594,-10.109375,,,,,,,,,,
acc,1778672786.0,205.0,-1.378906,3.460938,-9.953125,,,,,,,,,,
acc,1778672786.0,205.0,-1.300781,3.152344,-9.726562,,,,,,,,,,
acc,1778672786.0,205.0,-1.261719,3.269531,-10.03125,,,,,,,,,,
acc,1778672786.0,205.0,-1.222656,3.230469,-9.652344,,,,,,,,,,
acc,1778672786.0,205.0,-1.261719,3.34375,-9.992188,,,,,,,,,,
acc,1778672786.0,205.0,-1.261719,3.613281,-9.53125,,,,,,,,,,
acc,1778672786.0,205.0,-1.222656,3.5,-9.992188,,,,,,,,,,
acc,1778672786.0,205.0,-1.1875,3.535156,-9.691406,,,,,,,,,,
acc,1778672786.0,205.0,-1.109375,3.308594,-9.761719,,,,,,,,,,
acc,1778672786.0,205.0,-1.222656,3.382812,-9.648438,,,,,,,,,,
acc,1778672786.0,205.0,-1.1875,3.0,-9.875,,,,,,,,,,
acc,1778672786.0,205.0,-1.070312,2.925781,-9.53125,,,,,,,,,,
acc,1778672786.0,205.0,-1.300781,3.382812,-9.613281,,,,,,,,,,
acc,1778672786.0,205.0,-1.261719,3.269531,-9.953125,,,,,,,,,,
acc,1778672786.0,205.0,-1.148438,3.039062,-9.457031,,,,,,,,,,
acc,1778672786.0,205.0,-1.300781,3.152344,-10.070312,,,,,,,,,,
acc,1778672786.0,205.0,-1.570312,2.960938,-9.609375,,,,,,,,,,
acc,1778672786.0,205.0,-1.453125,3.191406,-9.953125,,,,,,,,,,
acc,1778672786.0,205.0,-1.414062,3.460938,-9.957031,,,,,,,,,,
acc,1778672786.0,205.0,-1.414062,2.925781,-9.6875,,,,,,,,,,
acc,1778672786.0,205.0,-1.261719,3.039062,-10.03125,,,,,,,,,,
acc,1778672786.0,205.0,-1.1875,3.078125,-9.875,,,,,,,,,,
acc,1778672786.0,205.0,-1.1875,3.191406,-9.957031,,,,,,,,,,
acc,1778672786.0,205.0,-1.109375,3.039062,-9.878906,,,,,,,,,,
acc,1778672786.0,205.0,-1.03125,3.078125,-10.179688,,,,,,,,,,
acc,1778672786.0,205.0,-1.109375,3.269531,-9.570312,,,,,,,,,,
acc,1778672786.0,205.0,-0.957031,3.460938,-10.03125,,,,,,,,,,
acc,1778672786.0,205.0,-0.957031,3.882812,-9.691406,,,,,,,,,,
acc,1778672786.0,205.0,-0.996094,3.613281,-9.609375,,,,,,,,,,
acc,1778672786.0,205.0,-0.957031,3.726562,-9.648438,,,,,,,,,,
acc,1778672786.0,205.0,-0.917969,3.691406,-9.761719,,,,,,,,,,
acc,1778672786.0,205.0,-0.996094,3.613281,-9.730469,,,,,,,,,,
acc,1778672786.0,205.0,-1.109375,3.613281,-9.535156,,,,,,,,,,
acc,1778672786.0,205.0,-1.109375,3.574219,-9.835938,,,,,,,,,,
acc,1778672786.0,205.0,-0.957031,3.574219,-9.839844,,,,,,,,,,
acc,1778672786.0,205.0,-0.957031,3.691406,-9.378906,,,,,,,,,,
acc,1778672786.0,205.0,-1.109375,3.613281,-9.957031,,,,,,,,,,
acc,1778672786.0,205.0,-0.917969,3.574219,-9.917969,,,,,,,,,,
acc,1778672786.0,205.0,-0.957031,3.382812,-9.609375,,,,,,,,,,
acc,1778672786.0,205.0,-0.917969,3.191406,-10.113281,,,,,,,,,,
acc,1778672786.0,205.0,-0.878906,3.308594,-9.835938,,,,,,,,,,
acc,1778672786.0,205.0,-1.03125,3.308594,-9.839844,,,,,,,,,,
acc,1778672786.0,205.0,-0.996094,3.308594,-9.953125,,,,,,,,,,
acc,1778672786.0,205.0,-0.726562,3.574219,-9.6875,,,,,,,,,,
acc,1778672786.0,205.0,-0.765625,3.574219,-9.609375,,,,,,,,,,
acc,1778672786.0,205.0,-0.878906,3.535156,-9.835938,,,,,,,,,,
acc,1778672786.0,205.0,-0.765625,3.0,-9.761719,,,,,,,,,,
acc,1778672786.0,205.0,-0.804688,3.078125,-9.535156,,,,,,,,,,
acc,1778672786.0,205.0,-0.917969,3.230469,-9.839844,,,,,,,,,,
acc,1778672786.0,205.0,-0.996094,3.382812,-9.453125,,,,,,,,,,
acc,1778672786.0,205.0,-0.917969,3.230469,-9.613281,,,,,,,,,,
acc,1778672786.0,205.0,-0.917969,3.308594,-9.492188,,,,,,,,,,
acc,1778672786.0,205.0,-0.839844,3.574219,-9.570312,,,,,,,,,,
acc,1778672786.0,205.0,-0.917969,3.460938,-9.414062,,,,,,,,,,
acc,1778672786.0,205.0,-0.878906,3.535156,-10.03125,,,,,,,,,,
acc,1778672786.0,205.0,-0.996094,3.765625,-9.613281,,,,,,,,,,
acc,1778672786.0,205.0,-1.070312,3.691406,-9.996094,,,,,,,,,,
acc,1778672786.0,205.0,-1.070312,3.613281,-9.992188,,,,,,,,,,
acc,1778672786.0,205.0,-1.03125,3.691406,-9.953125,,,,,,,,,,
acc,1778672786.0,205.0,-1.03125,3.535156,-10.113281,,,,,,,,,,
acc,1778672786.0,205.0,-0.765625,3.078125,-9.796875,,,,,,,,,,
acc,1778672786.0,205.0,-0.765625,3.5,-10.152344,,,,,,,,,,
acc,1778672786.0,205.0,-0.804688,3.535156,-9.839844,,,,,,,,,,
acc,1778672786.0,205.0,-0.765625,3.535156,-9.878906,,,,,,,,,,
acc,1778672786.0,205.0,-0.726562,3.535156,-9.914062,,,,,,,,,,
acc,1778672786.0,205.0,-0.726562,3.078125,-9.914062,,,,,,,,,,
acc,1778672786.0,205.0,-0.613281,3.230469,-9.839844,,,,,,,,,,
acc,1778672786.0,205.0,-0.535156,3.269531,-9.914062,,,,,,,,,,
acc,1778672786.0,205.0,-0.535156,3.191406,-9.726562,,,,,,,,,,
acc,1778672786.0,205.0,-0.34375,3.691406,-9.957031,,,,,,,,,,
acc,1778672786.0,205.0,-0.304688,3.117188,-9.496094,,,,,,,,,,
acc,1778672786.0,205.0,-0.34375,3.574219,-9.996094,,,,,,,,,,
acc,1778672786.0,205.0,-0.417969,3.421875,-9.796875,,,,,,,,,,
acc,1778672786.0,205.0,-0.417969,3.230469,-9.761719,,,,,,,,,,
acc,1778672787.0,206.0,-0.648438,3.535156,-9.726562,,,,,,,,,,
acc,1778672787.0,206.0,-0.6875,3.191406,-9.917969,,,,,,,,,,
acc,1778672787.0,206.0,-0.648438,3.34375,-9.996094,,,,,,,,,,
acc,1778672787.0,206.0,-0.6875,3.652344,-9.800781,,,,,,,,,,
acc,1778672787.0,206.0,-0.6875,3.613281,-10.074219,,,,,,,,,,
acc,1778672787.0,206.0,-0.726562,3.691406,-9.796875,,,,,,,,,,
acc,1778672787.0,206.0,-0.726562,3.804688,-9.917969,,,,,,,,,,
acc,1778672787.0,206.0,-0.535156,3.804688,-9.957031,,,,,,,,,,
acc,1778672787.0,206.0,-0.574219,3.726562,-9.496094,,,,,,,,,,
acc,1778672787.0,206.0,-0.535156,3.382812,-9.800781,,,,,,,,,,
acc,1778672787.0,206.0,-0.535156,3.421875,-9.378906,,,,,,,,,,
acc,1778672787.0,206.0,-0.457031,3.191406,-9.613281,,,,,,,,,,
acc,1778672787.0,206.0,-0.34375,3.230469,-9.652344,,,,,,,,,,
acc,1778672787.0,206.0,-0.265625,3.460938,-9.570312,,,,,,,,,,
acc,1778672787.0,206.0,-0.457031,3.652344,-9.835938,,,,,,,,,,
acc,1778672787.0,206.0,-0.417969,3.882812,-9.492188,,,,,,,,,,
acc,1778672787.0,206.0,-0.382812,3.996094,-9.53125,,,,,,,,,,
acc,1778672787.0,206.0,-0.226562,4.113281,-9.492188,,,,,,,,,,
acc,1778672787.0,206.0,-0.074219,3.996094,-9.917969,,,,,,,,,,
acc,1778672787.0,206.0,-0.265625,4.1875,-9.152344,,,,,,,,,,
acc,1778672787.0,206.0,-0.382812,4.226562,-9.914062,,,,,,,,,,
acc,1778672787.0,206.0,-0.34375,3.84375,-9.691406,,,,,,,,,,
acc,1778672787.0,206.0,-0.382812,3.652344,-9.609375,,,,,,,,,,
acc,1778672787.0,206.0,-0.535156,3.460938,-9.953125,,,,,,,,,,
acc,1778672787.0,206.0,-0.417969,3.34375,-9.691406,,,,,,,,,,
acc,1778672787.0,206.0,-0.113281,2.886719,-9.796875,,,,,,,,,,
acc,1778672787.0,206.0,-0.074219,3.421875,-9.691406,,,,,,,,,,
acc,1778672787.0,206.0,-0.152344,3.535156,-9.875,,,,,,,,,,
acc,1778672787.0,206.0,-0.265625,3.269531,-9.996094,,,,,,,,,,
acc,1778672787.0,206.0,-0.191406,3.421875,-9.953125,,,,,,,,,,
acc,1778672787.0,206.0,-0.304688,3.34375,-9.878906,,,,,,,,,,
acc,1778672787.0,206.0,-0.417969,3.230469,-10.152344,,,,,,,,,,
acc,1778672787.0,206.0,-0.34375,3.5,-9.992188,,,,,,,,,,
acc,1778672787.0,206.0,-0.265625,3.5,-10.296875,,,,,,,,,,
acc,1778672787.0,206.0,-0.304688,3.84375,-9.761719,,,,,,,,,,
acc,1778672787.0,206.0,-0.34375,3.921875,-10.070312,,,,,,,,,,
acc,1778672787.0,206.0,-0.113281,3.84375,-10.074219,,,,,,,,,,
acc,1778672787.0,206.0,-0.035156,4.035156,-9.835938,,,,,,,,,,
acc,1778672787.0,206.0,-0.152344,3.84375,-9.492188,,,,,,,,,,
acc,1778672787.0,206.0,-0.113281,3.421875,-9.652344,,,,,,,,,,
acc,1778672787.0,206.0,-0.152344,3.421875,-9.6875,,,,,,,,,,
acc,1778672787.0,206.0,-0.074219,3.613281,-9.535156,,,,,,,,,,
acc,1778672787.0,206.0,0.117188,3.613281,-9.453125,,,,,,,,,,
acc,1778672787.0,206.0,0.191406,4.113281,-9.417969,,,,,,,,,,
acc,1778672787.0,206.0,0.078125,3.535156,-9.730469,,,,,,,,,,
acc,1778672787.0,206.0,0.191406,3.308594,-9.34375,,,,,,,,,,
acc,1778672787.0,206.0,0.117188,3.34375,-9.453125,,,,,,,,,,
acc,1778672787.0,206.0,0.078125,3.34375,-9.875,,,,,,,,,,
acc,1778672787.0,206.0,0.117188,3.34375,-9.492188,,,,,,,,,,
acc,1778672787.0,206.0,0.0,3.308594,-9.757812,,,,,,,,,,
acc,1778672787.0,206.0,-0.074219,3.34375,-9.839844,,,,,,,,,,
acc,1778672787.0,206.0,-0.113281,3.535156,-9.691406,,,,,,,,,,
acc,1778672787.0,206.0,-0.035156,3.921875,-9.839844,,,,,,,,,,
acc,1778672787.0,206.0,0.039062,3.652344,-9.835938,,,,,,,,,,
acc,1778672787.0,206.0,0.0,3.5,-9.609375,,,,,,,,,,
acc,1778672787.0,206.0,-0.113281,3.230469,-9.796875,,,,,,,,,,
acc,1778672787.0,206.0,0.039062,3.039062,-9.648438,,,,,,,,,,
acc,1778672787.0,206.0,0.117188,3.0,-9.648438,,,,,,,,,,
acc,1778672787.0,206.0,0.039062,3.152344,-9.574219,,,,,,,,,,
acc,1778672787.0,206.0,-0.265625,3.308594,-9.652344,,,,,,,,,,
acc,1778672787.0,206.0,-0.34375,3.535156,-9.691406,,,,,,,,,,
acc,1778672787.0,206.0,-0.191406,3.726562,-9.957031,,,,,,,,,,
acc,1778672787.0,206.0,-0.304688,3.421875,-9.992188,,,,,,,,,,
acc,1778672787.0,206.0,-0.382812,3.230469,-10.035156,,,,,,,,,,
acc,1778672787.0,206.0,-0.34375,3.5,-9.835938,,,,,,,,,,
acc,1778672787.0,206.0,-0.34375,3.039062,-9.730469,,,,,,,,,,
acc,1778672787.0,206.0,-0.265625,2.617188,-9.878906,,,,,,,,,,
acc,1778672787.0,206.0,-0.265625,2.847656,-9.953125,,,,,,,,,,
acc,1778672787.0,206.0,-0.417969,3.230469,-9.796875,,,,,,,,,,
acc,1778672787.0,206.0,-0.613281,3.535156,-9.835938,,,,,,,,,,
acc,1778672787.0,206.0,-0.496094,3.574219,-10.152344,,,,,,,,,,
acc,1778672787.0,206.0,-0.496094,3.460938,-9.953125,,,,,,,,,,
acc,1778672787.0,206.0,-0.574219,3.535156,-9.957031,,,,,,,,,,
acc,1778672787.0,206.0,-0.34375,3.613281,-9.953125,,,,,,,,,,
acc,1778672787.0,206.0,-0.152344,3.460938,-9.757812,,,,,,,,,,
acc,1778672787.0,206.0,-0.152344,3.765625,-9.570312,,,,,,,,,,
acc,1778672787.0,206.0,-0.191406,3.652344,-9.957031,,,,,,,,,,
acc,1778672787.0,206.0,-0.34375,3.613281,-9.648438,,,,,,,,,,
acc,1778672787.0,206.0,-0.457031,3.5,-10.148438,,,,,,,,,,
acc,1778672787.0,206.0,-0.382812,3.152344,-9.992188,,,,,,,,,,
acc,1778672787.0,206.0,-0.457031,2.886719,-9.796875,,,,,,,,,,
acc,1778672787.0,206.0,-0.417969,2.769531,-10.03125,,,,,,,,,,
acc,1778672787.0,206.0,-0.417969,3.308594,-9.875,,,,,,,,,,
acc,1778672787.0,206.0,-0.34375,3.574219,-9.996094,,,,,,,,,,
acc,1778672787.0,206.0,-0.265625,3.726562,-9.917969,,,,,,,,,,
acc,1778672787.0,206.0,-0.265625,3.765625,-10.148438,,,,,,,,,,
acc,1778672787.0,206.0,-0.457031,3.921875,-9.996094,,,,,,,,,,
acc,1778672787.0,206.0,-0.535156,3.726562,-10.03125,,,,,,,,,,
acc,1778672787.0,206.0,-0.382812,3.613281,-10.074219,,,,,,,,,,
acc,1778672787.0,206.0,-0.304688,3.382812,-9.957031,,,,,,,,,,
acc,1778672787.0,206.0,-0.457031,3.460938,-10.074219,,,,,,,,,,
acc,1778672787.0,206.0,-0.496094,3.5,-9.953125,,,,,,,,,,
acc,1778672787.0,206.0,-0.535156,3.613281,-10.148438,,,,,,,,,,
acc,1778672787.0,206.0,-0.457031,3.421875,-10.070312,,,,,,,,,,
acc,1778672787.0,206.0,-0.382812,3.269531,-10.183594,,,,,,,,,,
acc,1778672787.0,206.0,-0.496094,3.34375,-9.875,,,,,,,,,,
acc,1778672787.0,206.0,-0.457031,3.535156,-10.148438,,,,,,,,,,
acc,1778672787.0,206.0,-0.457031,3.765625,-9.878906,,,,,,,,,,
acc,1778672787.0,206.0,-0.304688,3.84375,-9.996094,,,,,,,,,,
acc,1778672787.0,206.0,-0.304688,3.957031,-9.957031,,,,,,,,,,
acc,1778672787.0,206.0,-0.496094,4.148438,-10.035156,,,,,,,,,,
acc,1778672787.0,206.0,-0.457031,4.035156,-9.914062,,,,,,,,,,
acc,1778672787.0,206.0,-0.265625,3.613281,-9.839844,,,,,,,,,,
acc,1778672787.0,206.0,-0.113281,3.269531,-10.074219,,,,,,,,,,
acc,1778672787.0,206.0,-0.265625,3.382812,-9.6875,,,,,,,,,,
acc,1778672787.0,206.0,-0.382812,3.460938,-9.835938,,,,,,,,,,
acc,1778672787.0,206.0,-0.265625,3.691406,-9.757812,,,,,,,,,,
acc,1778672787.0,206.0,-0.265625,3.652344,-9.652344,,,,,,,,,,
acc,1778672787.0,206.0,-0.34375,3.691406,-9.996094,,,,,,,,,,
acc,1778672787.0,206.0,-0.417969,3.765625,-9.613281,,,,,,,,,,
acc,1778672787.0,206.0,-0.535156,3.804688,-9.957031,,,,,,,,,,
acc,1778672787.0,206.0,-0.382812,3.535156,-9.800781,,,,,,,,,,
acc,1778672787.0,206.0,-0.152344,3.726562,-10.03125,,,,,,,,,,
acc,1778672787.0,206.0,-0.304688,3.652344,-9.6875,,,,,,,,,,
acc,1778672787.0,206.0,-0.574219,3.382812,-9.6875,,,,,,,,,,
acc,1778672787.0,206.0,-0.535156,3.535156,-10.183594,,,,,,,,,,
acc,1778672787.0,206.0,-0.265625,3.421875,-9.914062,,,,,,,,,,
acc,1778672787.0,206.0,-0.152344,3.269531,-9.730469,,,,,,,,,,
acc,1778672787.0,206.0,-0.535156,3.613281,-9.992188,,,,,,,,,,
acc,1778672787.0,206.0,-0.574219,3.5,-9.957031,,,,,,,,,,
acc,1778672787.0,206.0,-0.535156,3.5,-9.800781,,,,,,,,,,
acc,1778672787.0,206.0,-0.382812,3.460938,-9.992188,,,,,,,,,,
acc,1778672787.0,206.0,-0.382812,3.460938,-9.875,,,,,,,,,,
acc,1778672787.0,206.0,-0.535156,3.269531,-9.875,,,,,,,,,,
acc,1778672787.0,206.0,-0.496094,3.117188,-9.730469,,,,,,,,,,
acc,1778672787.0,206.0,-0.457031,3.078125,-9.953125,,,,,,,,,,
acc,1778672787.0,206.0,-0.34375,3.34375,-9.574219,,,,,,,,,,
acc,1778672788.0,207.0,-0.382812,3.34375,-9.953125,,,,,,,,,,
acc,1778672788.0,207.0,-0.457031,3.382812,-9.757812,,,,,,,,,,
acc,1778672788.0,207.0,-0.457031,3.535156,-9.757812,,,,,,,,,,
acc,1778672788.0,207.0,-0.382812,3.308594,-9.875,,,,,,,,,,
acc,1778672788.0,207.0,-0.34375,3.308594,-9.800781,,,,,,,,,,
acc,1778672788.0,207.0,-0.417969,3.613281,-9.953125,,,,,,,,,,
acc,1778672788.0,207.0,-0.304688,3.726562,-9.652344,,,,,,,,,,
acc,1778672788.0,207.0,-0.304688,4.074219,-9.953125,,,,,,,,,,
acc,1778672788.0,207.0,-0.34375,4.074219,-9.761719,,,,,,,,,,
acc,1778672788.0,207.0,-0.496094,3.996094,-9.730469,,,,,,,,,,
acc,1778672788.0,207.0,-0.496094,3.804688,-9.996094,,,,,,,,,,
acc,1778672788.0,207.0,-0.304688,3.269531,-9.457031,,,,,,,,,,
acc,1778672788.0,207.0,-0.304688,3.574219,-9.800781,,,,,,,,,,
acc,1778672788.0,207.0,-0.382812,3.308594,-9.609375,,,,,,,,,,
acc,1778672788.0,207.0,-0.34375,3.152344,-9.648438,,,,,,,,,,
acc,1778672788.0,207.0,-0.304688,3.5,-9.839844,,,,,,,,,,
acc,1778672788.0,207.0,-0.417969,3.574219,-9.917969,,,,,,,,,,
acc,1778672788.0,207.0,-0.382812,3.613281,-9.800781,,,,,,,,,,
acc,1778672788.0,207.0,-0.226562,3.652344,-9.691406,,,,,,,,,,
acc,1778672788.0,207.0,-0.191406,4.113281,-9.726562,,,,,,,,,,
acc,1778672788.0,207.0,-0.304688,3.535156,-9.378906,,,,,,,,,,
acc,1778672788.0,207.0,-0.34375,3.574219,-10.070312,,,,,,,,,,
acc,1778672788.0,207.0,-0.34375,3.308594,-9.574219,,,,,,,,,,
acc,1778672788.0,207.0,-0.457031,3.382812,-9.835938,,,,,,,,,,
acc,1778672788.0,207.0,-0.457031,3.308594,-9.875,,,,,,,,,,
acc,1778672788.0,207.0,-0.417969,3.652344,-9.648438,,,,,,,,,,
acc,1778672788.0,207.0,-0.457031,3.882812,-9.992188,,,,,,,,,,
acc,1778672788.0,207.0,-0.382812,3.5,-9.53125,,,,,,,,,,
acc,1778672788.0,207.0,-0.34375,3.5,-9.835938,,,,,,,,,,
acc,1778672788.0,207.0,-0.417969,3.191406,-9.6875,,,,,,,,,,
acc,1778672788.0,207.0,-0.417969,3.230469,-9.652344,,,,,,,,,,
acc,1778672788.0,207.0,-0.34375,3.5,-9.757812,,,,,,,,,,
acc,1778672788.0,207.0,-0.226562,3.269531,-9.691406,,,,,,,,,,
acc,1778672788.0,207.0,-0.382812,3.34375,-9.691406,,,,,,,,,,
acc,1778672788.0,207.0,-0.382812,3.308594,-9.914062,,,,,,,,,,
acc,1778672788.0,207.0,-0.226562,3.191406,-9.613281,,,,,,,,,,
acc,1778672788.0,207.0,-0.34375,3.535156,-9.648438,,,,,,,,,,
acc,1778672788.0,207.0,-0.34375,3.535156,-9.914062,,,,,,,,,,
acc,1778672788.0,207.0,-0.191406,3.921875,-9.53125,,,,,,,,,,
acc,1778672788.0,207.0,-0.382812,3.765625,-9.613281,,,,,,,,,,
acc,1778672788.0,207.0,-0.382812,3.726562,-9.875,,,,,,,,,,
acc,1778672788.0,207.0,-0.304688,3.804688,-9.574219,,,,,,,,,,
acc,1778672788.0,207.0,-0.457031,3.613281,-9.875,,,,,,,,,,
acc,1778672788.0,207.0,-0.457031,3.613281,-9.757812,,,,,,,,,,
acc,1778672788.0,207.0,-0.382812,3.921875,-9.917969,,,,,,,,,,
acc,1778672788.0,207.0,-0.417969,3.957031,-9.875,,,,,,,,,,
acc,1778672788.0,207.0,-0.457031,3.652344,-9.492188,,,,,,,,,,
acc,1778672788.0,207.0,-0.191406,3.652344,-9.839844,,,,,,,,,,
acc,1778672788.0,207.0,-0.074219,3.574219,-9.574219,,,,,,,,,,
acc,1778672788.0,207.0,-0.152344,3.613281,-9.347656,,,,,,,,,,
acc,1778672788.0,207.0,-0.304688,3.460938,-9.917969,,,,,,,,,,
acc,1778672788.0,207.0,-0.265625,3.269531,-9.496094,,,,,,,,,,
acc,1778672788.0,207.0,-0.304688,3.84375,-9.839844,,,,,,,,,,
acc,1778672788.0,207.0,-0.304688,3.382812,-9.917969,,,,,,,,,,
acc,1778672788.0,207.0,-0.304688,3.5,-9.839844,,,,,,,,,,
acc,1778672788.0,207.0,-0.574219,3.921875,-9.730469,,,,,,,,,,
acc,1778672788.0,207.0,-0.535156,3.421875,-10.035156,,,,,,,,,,
acc,1778672788.0,207.0,-0.191406,3.5,-9.570312,,,,,,,,,,
acc,1778672788.0,207.0,-0.304688,3.652344,-9.761719,,,,,,,,,,
acc,1778672788.0,207.0,-0.496094,3.574219,-9.996094,,,,,,,,,,
acc,1778672788.0,207.0,-0.304688,3.5,-9.496094,,,,,,,,,,
acc,1778672788.0,207.0,-0.152344,3.5,-9.730469,,,,,,,,,,
acc,1778672788.0,207.0,-0.226562,3.382812,-9.53125,,,,,,,,,,
acc,1778672788.0,207.0,-0.304688,3.460938,-9.839844,,,,,,,,,,
acc,1778672788.0,207.0,-0.417969,3.535156,-9.609375,,,,,,,,,,
acc,1778672788.0,207.0,-0.382812,3.460938,-9.648438,,,,,,,,,,
acc,1778672788.0,207.0,-0.226562,3.652344,-9.648438,,,,,,,,,,
acc,1778672788.0,207.0,-0.265625,3.535156,-9.535156,,,,,,,,,,
acc,1778672788.0,207.0,-0.304688,3.613281,-9.796875,,,,,,,,,,
acc,1778672788.0,207.0,-0.191406,3.574219,-9.574219,,,,,,,,,,
acc,1778672788.0,207.0,-0.152344,3.421875,-9.957031,,,,,,,,,,
acc,1778672788.0,207.0,-0.304688,3.574219,-9.730469,,,,,,,,,,
acc,1778672788.0,207.0,-0.613281,3.460938,-9.691406,,,,,,,,,,
acc,1778672788.0,207.0,-0.496094,3.460938,-9.914062,,,,,,,,,,
acc,1778672788.0,207.0,-0.457031,3.726562,-9.609375,,,,,,,,,,
acc,1778672788.0,207.0,-0.417969,3.652344,-9.691406,,,,,,,,,,
acc,1778672788.0,207.0,-0.457031,3.765625,-9.761719,,,,,,,,,,
acc,1778672788.0,207.0,-0.417969,3.996094,-9.609375,,,,,,,,,,
acc,1778672788.0,207.0,-0.457031,3.460938,-9.453125,,,,,,,,,,
acc,1778672788.0,207.0,-0.304688,3.691406,-9.609375,,,,,,,,,,
acc,1778672788.0,207.0,-0.304688,3.535156,-9.878906,,,,,,,,,,
acc,1778672788.0,207.0,-0.496094,3.5,-9.609375,,,,,,,,,,
acc,1778672788.0,207.0,-0.457031,3.613281,-9.835938,,,,,,,,,,
acc,1778672788.0,207.0,-0.265625,3.574219,-9.691406,,,,,,,,,,
acc,1778672788.0,207.0,-0.34375,3.5,-9.800781,,,,,,,,,,
acc,1778672788.0,207.0,-0.304688,3.269531,-9.917969,,,,,,,,,,
acc,1778672788.0,207.0,-0.417969,3.421875,-9.652344,,,,,,,,,,
acc,1778672788.0,207.0,-0.535156,3.535156,-9.757812,,,,,,,,,,
acc,1778672788.0,207.0,-0.34375,3.574219,-9.878906,,,,,,,,,,
acc,1778672788.0,207.0,-0.34375,3.613281,-9.730469,,,,,,,,,,
acc,1778672788.0,207.0,-0.34375,3.34375,-9.875,,,,,,,,,,
acc,1778672788.0,207.0,-0.417969,3.460938,-9.609375,,,,,,,,,,
acc,1778672788.0,207.0,-0.417969,3.574219,-9.570312,,,,,,,,,,
acc,1778672788.0,207.0,-0.191406,3.996094,-9.917969,,,,,,,,,,
acc,1778672788.0,207.0,-0.226562,3.996094,-9.304688,,,,,,,,,,
acc,1778672788.0,207.0,-0.152344,3.996094,-9.914062,,,,,,,,,,
acc,1778672788.0,207.0,-0.113281,3.921875,-9.6875,,,,,,,,,,
acc,1778672788.0,207.0,-0.113281,3.804688,-9.761719,,,,,,,,,,
acc,1778672788.0,207.0,-0.304688,3.460938,-9.878906,,,,,,,,,,
acc,1778672788.0,207.0,-0.265625,3.308594,-9.761719,,,,,,,,,,
acc,1778672788.0,207.0,-0.417969,3.117188,-9.875,,,,,,,,,,
acc,1778672788.0,207.0,-0.496094,3.230469,-9.6875,,,,,,,,,,
acc,1778672788.0,207.0,-0.457031,3.5,-9.875,,,,,,,,,,
acc,1778672788.0,207.0,-0.417969,3.613281,-9.648438,,,,,,,,,,
acc,1778672788.0,207.0,-0.535156,3.691406,-9.726562,,,,,,,,,,
acc,1778672788.0,207.0,-0.417969,3.726562,-9.914062,,,,,,,,,,
acc,1778672788.0,207.0,-0.417969,3.191406,-10.070312,,,,,,,,,,
acc,1778672788.0,207.0,-0.417969,3.308594,-9.492188,,,,,,,,,,
acc,1778672788.0,207.0,-0.304688,3.574219,-10.074219,,,,,,,,,,
acc,1778672788.0,207.0,-0.191406,3.230469,-9.609375,,,,,,,,,,
acc,1778672788.0,207.0,-0.152344,3.691406,-9.378906,,,,,,,,,,
acc,1778672788.0,207.0,-0.382812,3.84375,-9.875,,,,,,,,,,
acc,1778672788.0,207.0,-0.34375,3.804688,-9.535156,,,,,,,,,,
acc,1778672788.0,207.0,-0.34375,3.804688,-9.726562,,,,,,,,,,
acc,1778672788.0,207.0,-0.265625,3.804688,-9.914062,,,,,,,,,,
acc,1778672788.0,207.0,-0.226562,3.726562,-9.691406,,,,,,,,,,
acc,1778672788.0,207.0,-0.304688,3.84375,-9.726562,,,,,,,,,,
acc,1778672788.0,207.0,-0.265625,3.882812,-9.839844,,,,,,,,,,
acc,1778672788.0,207.0,-0.265625,3.613281,-9.652344,,,,,,,,,,
acc,1778672788.0,207.0,-0.191406,3.84375,-9.957031,,,,,,,,,,
acc,1778672788.0,207.0,-0.304688,3.804688,-9.730469,,,,,,,,,,
acc,1778672788.0,207.0,-0.34375,3.882812,-9.757812,,,,,,,,,,
acc,1778672788.0,207.0,-0.265625,3.726562,-9.726562,,,,,,,,,,
acc,1778672788.0,207.0,-0.152344,3.882812,-9.835938,,,,,,,,,,
acc,1778672788.0,207.0,-0.226562,3.957031,-9.492188,,,,,,,,,,
acc,1778672788.0,207.0,-0.304688,3.84375,-10.035156,,,,,,,,,,
acc,1778672788.0,207.0,-0.226562,3.882812,-9.609375,,,,,,,,,,
acc,1778672789.0,208.0,-0.191406,3.691406,-9.800781,,,,,,,,,,
acc,1778672789.0,208.0,-0.304688,3.84375,-9.878906,,,,,,,,,,
acc,1778672789.0,208.0,-0.304688,4.226562,-9.878906,,,,,,,,,,
acc,1778672789.0,208.0,-0.382812,4.265625,-9.878906,,,,,,,,,,
acc,1778672789.0,208.0,-0.457031,4.148438,-9.796875,,,,,,,,,,
acc,1778672789.0,208.0,-0.417969,3.765625,-10.070312,,,,,,,,,,
acc,1778672789.0,208.0,-0.457031,3.460938,-9.835938,,,,,,,,,,
acc,1778672789.0,208.0,-0.535156,3.574219,-9.957031,,,,,,,,,,
acc,1778672789.0,208.0,-0.535156,3.308594,-10.03125,,,,,,,,,,
acc,1778672789.0,208.0,-0.457031,3.191406,-9.535156,,,,,,,,,,
acc,1778672789.0,208.0,-0.304688,3.308594,-9.613281,,,,,,,,,,
acc,1778672789.0,208.0,-0.34375,3.5,-9.53125,,,,,,,,,,
acc,1778672789.0,208.0,-0.304688,3.574219,-9.648438,,,,,,,,,,
acc,1778672789.0,208.0,-0.34375,3.039062,-9.574219,,,,,,,,,,
acc,1778672789.0,208.0,-0.574219,2.886719,-9.757812,,,,,,,,,,
acc,1778672789.0,208.0,-0.574219,3.152344,-9.839844,,,,,,,,,,
acc,1778672789.0,208.0,-0.34375,3.117188,-9.835938,,,,,,,,,,
acc,1778672789.0,208.0,-0.34375,3.574219,-9.726562,,,,,,,,,,
acc,1778672789.0,208.0,-0.496094,3.230469,-9.917969,,,,,,,,,,
acc,1778672789.0,208.0,-0.6875,3.5,-9.609375,,,,,,,,,,
acc,1778672789.0,208.0,-0.535156,3.613281,-9.953125,,,,,,,,,,
acc,1778672789.0,208.0,-0.457031,3.5,-9.304688,,,,,,,,,,
acc,1778672789.0,208.0,-0.496094,3.34375,-9.691406,,,,,,,,,,
acc,1778672789.0,208.0,-0.457031,3.421875,-9.878906,,,,,,,,,,
acc,1778672789.0,208.0,-0.574219,3.613281,-9.457031,,,,,,,,,,
acc,1778672789.0,208.0,-0.613281,4.035156,-10.03125,,,,,,,,,,
acc,1778672789.0,208.0,-0.457031,3.882812,-9.691406,,,,,,,,,,
acc,1778672789.0,208.0,-0.34375,3.996094,-9.492188,,,,,,,,,,
acc,1778672789.0,208.0,-0.265625,3.921875,-9.835938,,,,,,,,,,
acc,1778672789.0,208.0,-0.226562,4.113281,-9.800781,,,,,,,,,,
acc,1778672789.0,208.0,-0.34375,4.148438,-9.570312,,,,,,,,,,
acc,1778672789.0,208.0,-0.417969,3.804688,-10.035156,,,,,,,,,,
acc,1778672789.0,208.0,-0.496094,3.84375,-9.574219,,,,,,,,,,
acc,1778672789.0,208.0,-0.457031,3.84375,-9.992188,,,,,,,,,,
acc,1778672789.0,208.0,-0.382812,3.308594,-9.800781,,,,,,,,,,
acc,1778672789.0,208.0,-0.417969,3.382812,-9.574219,,,,,,,,,,
acc,1778672789.0,208.0,-0.417969,3.726562,-10.074219,,,,,,,,,,
acc,1778672789.0,208.0,-0.382812,3.613281,-9.648438,,,,,,,,,,
acc,1778672789.0,208.0,-0.191406,3.726562,-9.761719,,,,,,,,,,
acc,1778672789.0,208.0,-0.152344,3.652344,-9.800781,,,,,,,,,,
acc,1778672789.0,208.0,-0.265625,3.5,-9.613281,,,,,,,,,,
acc,1778672789.0,208.0,-0.265625,3.5,-9.996094,,,,,,,,,,
acc,1778672789.0,208.0,-0.152344,3.078125,-9.53125,,,,,,,,,,
acc,1778672789.0,208.0,-0.191406,3.691406,-9.914062,,,,,,,,,,
acc,1778672789.0,208.0,-0.226562,3.34375,-9.757812,,,,,,,,,,
acc,1778672789.0,208.0,-0.074219,3.117188,-9.496094,,,,,,,,,,
acc,1778672789.0,208.0,-0.074219,3.804688,-9.648438,,,,,,,,,,
acc,1778672789.0,208.0,-0.152344,3.652344,-9.730469,,,,,,,,,,
acc,1778672789.0,208.0,-0.113281,3.421875,-9.457031,,,,,,,,,,
acc,1778672789.0,208.0,-0.113281,3.652344,-9.875,,,,,,,,,,
acc,1778672789.0,208.0,-0.191406,3.535156,-9.570312,,,,,,,,,,
acc,1778672789.0,208.0,-0.113281,3.613281,-9.730469,,,,,,,,,,
acc,1778672789.0,208.0,0.0,3.652344,-9.730469,,,,,,,,,,
acc,1778672789.0,208.0,-0.035156,3.421875,-9.6875,,,,,,,,,,
acc,1778672789.0,208.0,-0.152344,3.308594,-9.757812,,,,,,,,,,
acc,1778672789.0,208.0,-0.113281,3.34375,-9.835938,,,,,,,,,,
acc,1778672789.0,208.0,-0.074219,3.574219,-9.53125,,,,,,,,,,
acc,1778672789.0,208.0,-0.074219,3.726562,-9.570312,,,,,,,,,,
acc,1778672789.0,208.0,-0.113281,3.882812,-9.757812,,,,,,,,,,
acc,1778672789.0,208.0,-0.074219,4.113281,-9.226562,,,,,,,,,,
acc,1778672789.0,208.0,-0.035156,3.921875,-9.839844,,,,,,,,,,
acc,1778672789.0,208.0,-0.074219,3.804688,-9.691406,,,,,,,,,,
acc,1778672789.0,208.0,-0.417969,3.804688,-9.957031,,,,,,,,,,
acc,1778672789.0,208.0,-0.34375,3.957031,-9.953125,,,,,,,,,,
acc,1778672789.0,208.0,-0.265625,3.957031,-9.613281,,,,,,,,,,
acc,1778672789.0,208.0,-0.304688,3.34375,-9.878906,,,,,,,,,,
acc,1778672789.0,208.0,-0.191406,3.078125,-9.652344,,,,,,,,,,
acc,1778672789.0,208.0,-0.191406,3.382812,-9.878906,,,,,,,,,,
acc,1778672789.0,208.0,-0.226562,3.0,-9.53125,,,,,,,,,,
acc,1778672789.0,208.0,-0.191406,3.117188,-9.652344,,,,,,,,,,
acc,1778672789.0,208.0,-0.226562,3.535156,-9.914062,,,,,,,,,,
acc,1778672789.0,208.0,-0.265625,3.421875,-9.414062,,,,,,,,,,
acc,1778672789.0,208.0,-0.265625,3.652344,-10.222656,,,,,,,,,,
acc,1778672789.0,208.0,-0.417969,3.882812,-9.691406,,,,,,,,,,
acc,1778672789.0,208.0,-0.613281,3.957031,-9.875,,,,,,,,,,
acc,1778672789.0,208.0,-0.535156,3.882812,-9.953125,,,,,,,,,,
acc,1778672789.0,208.0,-0.457031,3.882812,-9.492188,,,,,,,,,,
acc,1778672789.0,208.0,-0.34375,3.691406,-10.070312,,,,,,,,,,
acc,1778672789.0,208.0,-0.34375,3.5,-9.609375,,,,,,,,,,
acc,1778672789.0,208.0,-0.34375,3.382812,-9.914062,,,,,,,,,,
acc,1778672789.0,208.0,-0.457031,3.382812,-9.800781,,,,,,,,,,
acc,1778672789.0,208.0,-0.382812,3.613281,-9.953125,,,,,,,,,,
acc,1778672789.0,208.0,-0.34375,3.652344,-10.03125,,,,,,,,,,
acc,1778672789.0,208.0,-0.382812,3.691406,-9.613281,,,,,,,,,,
acc,1778672789.0,208.0,-0.382812,3.921875,-10.070312,,,,,,,,,,
acc,1778672789.0,208.0,-0.265625,3.957031,-9.726562,,,,,,,,,,
acc,1778672789.0,208.0,-0.191406,3.921875,-9.875,,,,,,,,,,
acc,1778672789.0,208.0,-0.304688,3.996094,-10.113281,,,,,,,,,,
acc,1778672789.0,208.0,-0.417969,3.84375,-9.730469,,,,,,,,,,
acc,1778672789.0,208.0,-0.265625,3.921875,-10.03125,,,,,,,,,,
acc,1778672789.0,208.0,-0.382812,4.074219,-9.957031,,,,,,,,,,
acc,1778672789.0,208.0,-0.417969,3.574219,-10.070312,,,,,,,,,,
acc,1778672789.0,208.0,-0.304688,3.804688,-9.730469,,,,,,,,,,
acc,1778672789.0,208.0,-0.34375,3.882812,-9.953125,,,,,,,,,,
acc,1778672789.0,208.0,-0.265625,3.691406,-10.074219,,,,,,,,,,
acc,1778672789.0,208.0,-0.191406,4.148438,-9.800781,,,,,,,,,,
acc,1778672789.0,208.0,-0.191406,3.996094,-10.035156,,,,,,,,,,
acc,1778672789.0,208.0,-0.304688,3.574219,-10.03125,,,,,,,,,,
acc,1778672789.0,208.0,-0.265625,3.535156,-9.839844,,,,,,,,,,
acc,1778672789.0,208.0,-0.191406,3.460938,-10.113281,,,,,,,,,,
acc,1778672789.0,208.0,-0.191406,3.382812,-9.796875,,,,,,,,,,
acc,1778672789.0,208.0,-0.265625,3.34375,-9.761719,,,,,,,,,,
acc,1778672789.0,208.0,-0.304688,3.5,-9.917969,,,,,,,,,,
acc,1778672789.0,208.0,-0.417969,3.230469,-9.796875,,,,,,,,,,
acc,1778672789.0,208.0,-0.304688,3.308594,-9.957031,,,,,,,,,,
acc,1778672789.0,208.0,-0.265625,3.5,-9.726562,,,,,,,,,,
acc,1778672789.0,208.0,-0.265625,3.382812,-9.996094,,,,,,,,,,
acc,1778672789.0,208.0,-0.304688,3.726562,-9.917969,,,,,,,,,,
acc,1778672789.0,208.0,-0.265625,3.957031,-9.917969,,,,,,,,,,
acc,1778672789.0,208.0,-0.304688,3.804688,-9.835938,,,,,,,,,,
acc,1778672789.0,208.0,-0.265625,4.074219,-9.648438,,,,,,,,,,
acc,1778672789.0,208.0,-0.265625,4.074219,-9.835938,,,,,,,,,,
acc,1778672789.0,208.0,-0.226562,3.921875,-9.6875,,,,,,,,,,
acc,1778672789.0,208.0,-0.191406,4.074219,-9.648438,,,,,,,,,,
acc,1778672789.0,208.0,-0.191406,4.035156,-9.796875,,,,,,,,,,
acc,1778672789.0,208.0,-0.226562,3.957031,-9.691406,,,,,,,,,,
acc,1778672789.0,208.0,-0.265625,4.074219,-9.914062,,,,,,,,,,
acc,1778672789.0,208.0,-0.304688,4.074219,-9.835938,,,,,,,,,,
acc,1778672789.0,208.0,-0.382812,3.804688,-9.996094,,,,,,,,,,
acc,1778672789.0,208.0,-0.34375,3.765625,-9.839844,,,,,,,,,,
acc,1778672789.0,208.0,-0.34375,3.765625,-9.796875,,,,,,,,,,
acc,1778672789.0,208.0,-0.382812,3.574219,-9.878906,,,,,,,,,,
acc,1778672789.0,208.0,-0.226562,3.765625,-9.796875,,,,,,,,,,
acc,1778672789.0,208.0,-0.191406,3.882812,-9.996094,,,,,,,,,,
acc,1778672790.0,209.0,-0.34375,4.035156,-10.03125,,,,,,,,,,
acc,1778672790.0,209.0,-0.382812,4.074219,-9.878906,,,,,,,,,,
acc,1778672790.0,209.0,-0.34375,3.84375,-9.875,,,,,,,,,,
acc,1778672790.0,209.0,-0.226562,3.765625,-10.261719,,,,,,,,,,
acc,1778672790.0,209.0,-0.304688,3.691406,-9.691406,,,,,,,,,,
acc,1778672790.0,209.0,-0.457031,3.84375,-10.257812,,,,,,,,,,
acc,1778672790.0,209.0,-0.34375,3.691406,-9.761719,,,,,,,,,,
acc,1778672790.0,209.0,-0.34375,3.230469,-9.796875,,,,,,,,,,
acc,1778672790.0,209.0,-0.417969,3.269531,-10.03125,,,,,,,,,,
acc,1778672790.0,209.0,-0.417969,3.308594,-9.691406,,,,,,,,,,
acc,1778672790.0,209.0,-0.382812,3.117188,-9.835938,,,,,,,,,,
acc,1778672790.0,209.0,-0.382812,3.078125,-9.953125,,,,,,,,,,
acc,1778672790.0,209.0,-0.34375,3.382812,-9.691406,,,,,,,,,,
acc,1778672790.0,209.0,-0.304688,3.5,-9.839844,,,,,,,,,,
acc,1778672790.0,209.0,-0.382812,3.957031,-9.691406,,,,,,,,,,
acc,1778672790.0,209.0,-0.417969,4.113281,-9.730469,,,,,,,,,,
acc,1778672790.0,209.0,-0.535156,4.148438,-9.917969,,,,,,,,,,
acc,1778672790.0,209.0,-0.6875,4.1875,-9.914062,,,,,,,,,,
acc,1778672790.0,209.0,-0.535156,3.882812,-9.914062,,,,,,,,,,
acc,1778672790.0,209.0,-0.382812,3.613281,-9.691406,,,,,,,,,,
acc,1778672790.0,209.0,-0.417969,3.574219,-9.761719,,,,,,,,,,
acc,1778672790.0,209.0,-0.417969,3.613281,-9.691406,,,,,,,,,,
acc,1778672790.0,209.0,-0.496094,3.804688,-9.613281,,,,,,,,,,
acc,1778672790.0,209.0,-0.613281,3.691406,-10.035156,,,,,,,,,,
acc,1778672790.0,209.0,-0.574219,3.652344,-9.457031,,,,,,,,,,
acc,1778672790.0,209.0,-0.417969,3.996094,-9.992188,,,,,,,,,,
acc,1778672790.0,209.0,-0.417969,3.996094,-9.757812,,,,,,,,,,
acc,1778672790.0,209.0,-0.382812,4.1875,-9.648438,,,,,,,,,,
acc,1778672790.0,209.0,-0.382812,3.921875,-10.070312,,,,,,,,,,
acc,1778672790.0,209.0,-0.304688,3.574219,-9.574219,,,,,,,,,,
acc,1778672790.0,209.0,-0.382812,3.691406,-9.726562,,,,,,,,,,
acc,1778672790.0,209.0,-0.304688,3.382812,-9.839844,,,,,,,,,,
acc,1778672790.0,209.0,-0.417969,3.613281,-9.648438,,,,,,,,,,
acc,1778672790.0,209.0,-0.613281,3.613281,-9.953125,,,,,,,,,,
acc,1778672790.0,209.0,-0.648438,3.652344,-9.839844,,,,,,,,,,
acc,1778672790.0,209.0,-0.535156,4.113281,-9.800781,,,,,,,,,,
acc,1778672790.0,209.0,-0.457031,3.804688,-10.035156,,,,,,,,,,
acc,1778672790.0,209.0,-0.265625,3.804688,-9.691406,,,,,,,,,,
acc,1778672790.0,209.0,-0.304688,3.921875,-9.757812,,,,,,,,,,
acc,1778672790.0,209.0,-0.34375,3.957031,-9.914062,,,,,,,,,,
acc,1778672790.0,209.0,-0.304688,3.957031,-9.613281,,,,,,,,,,
acc,1778672790.0,209.0,-0.191406,4.035156,-10.152344,,,,,,,,,,
acc,1778672790.0,209.0,-0.34375,4.265625,-9.6875,,,,,,,,,,
acc,1778672790.0,209.0,-0.035156,3.652344,-9.375,,,,,,,,,,
acc,1778672790.0,209.0,-0.074219,3.84375,-10.035156,,,,,,,,,,
acc,1778672790.0,209.0,-0.074219,3.957031,-9.535156,,,,,,,,,,
acc,1778672790.0,209.0,-0.265625,3.765625,-9.800781,,,,,,,,,,
acc,1778672790.0,209.0,-0.417969,3.804688,-10.070312,,,,,,,,,,
acc,1778672790.0,209.0,-0.496094,3.882812,-9.574219,,,,,,,,,,
acc,1778672790.0,209.0,-0.417969,3.996094,-10.109375,,,,,,,,,,
acc,1778672790.0,209.0,-0.34375,3.882812,-9.304688,,,,,,,,,,
acc,1778672790.0,209.0,-0.34375,3.421875,-9.535156,,,,,,,,,,
acc,1778672790.0,209.0,-0.265625,3.269531,-9.652344,,,,,,,,,,
acc,1778672790.0,209.0,-0.113281,3.34375,-9.347656,,,,,,,,,,
acc,1778672790.0,209.0,-0.265625,3.574219,-9.835938,,,,,,,,,,
acc,1778672790.0,209.0,-0.417969,3.460938,-9.347656,,,,,,,,,,
acc,1778672790.0,209.0,-0.417969,3.421875,-9.878906,,,,,,,,,,
acc,1778672790.0,209.0,-0.191406,3.308594,-9.378906,,,,,,,,,,
acc,1778672790.0,209.0,-0.113281,3.34375,-9.453125,,,,,,,,,,
acc,1778672790.0,209.0,-0.226562,3.535156,-9.835938,,,,,,,,,,
acc,1778672790.0,209.0,-0.304688,3.574219,-9.453125,,,,,,,,,,
acc,1778672790.0,209.0,-0.417969,3.535156,-9.730469,,,,,,,,,,
acc,1778672790.0,209.0,-0.34375,3.382812,-9.574219,,,,,,,,,,
acc,1778672790.0,209.0,-0.152344,3.152344,-9.691406,,,,,,,,,,
acc,1778672790.0,209.0,-0.304688,3.0,-9.457031,,,,,,,,,,
acc,1778672790.0,209.0,-0.304688,2.730469,-9.648438,,,,,,,,,,
acc,1778672790.0,209.0,-0.191406,3.0,-9.496094,,,,,,,,,,
acc,1778672790.0,209.0,-0.226562,3.382812,-9.609375,,,,,,,,,,
acc,1778672790.0,209.0,-0.265625,3.460938,-9.761719,,,,,,,,,,
acc,1778672790.0,209.0,-0.265625,3.84375,-9.535156,,,,,,,,,,
acc,1778672790.0,209.0,-0.191406,3.84375,-9.761719,,,,,,,,,,
acc,1778672790.0,209.0,-0.265625,3.882812,-9.570312,,,,,,,,,,
acc,1778672790.0,209.0,-0.304688,4.265625,-9.835938,,,,,,,,,,
acc,1778672790.0,209.0,-0.304688,4.265625,-9.914062,,,,,,,,,,
acc,1778672790.0,209.0,-0.417969,4.1875,-9.800781,,,,,,,,,,
acc,1778672790.0,209.0,-0.34375,4.265625,-9.6875,,,,,,,,,,
acc,1778672790.0,209.0,-0.265625,4.378906,-9.957031,,,,,,,,,,
acc,1778672790.0,209.0,-0.191406,4.339844,-9.839844,,,,,,,,,,
acc,1778672790.0,209.0,-0.265625,4.304688,-9.800781,,,,,,,,,,
acc,1778672790.0,209.0,-0.304688,4.417969,-9.839844,,,,,,,,,,
acc,1778672790.0,209.0,-0.265625,4.339844,-9.878906,,,,,,,,,,
acc,1778672790.0,209.0,-0.226562,4.226562,-9.992188,,,,,,,,,,
acc,1778672790.0,209.0,-0.113281,3.996094,-9.574219,,,,,,,,,,
acc,1778672790.0,209.0,0.0,4.074219,-9.761719,,,,,,,,,,
acc,1778672790.0,209.0,0.15625,3.957031,-9.875,,,,,,,,,,
acc,1778672790.0,209.0,0.15625,3.726562,-9.265625,,,,,,,,,,
acc,1778672790.0,209.0,0.039062,3.652344,-9.691406,,,,,,,,,,
acc,1778672790.0,209.0,-0.035156,3.84375,-9.835938,,,,,,,,,,
acc,1778672790.0,209.0,0.039062,3.535156,-9.609375,,,,,,,,,,
acc,1778672790.0,209.0,-0.074219,3.421875,-9.953125,,,,,,,,,,
acc,1778672790.0,209.0,-0.113281,3.652344,-9.648438,,,,,,,,,,
acc,1778672790.0,209.0,-0.113281,3.765625,-9.878906,,,,,,,,,,
acc,1778672790.0,209.0,-0.074219,3.726562,-9.796875,,,,,,,,,,
acc,1778672790.0,209.0,-0.152344,3.574219,-9.496094,,,,,,,,,,
acc,1778672790.0,209.0,-0.265625,3.382812,-9.917969,,,,,,,,,,
acc,1778672790.0,209.0,-0.34375,3.230469,-9.796875,,,,,,,,,,
acc,1778672790.0,209.0,-0.34375,3.460938,-9.953125,,,,,,,,,,
acc,1778672790.0,209.0,-0.304688,3.613281,-9.796875,,,,,,,,,,
acc,1778672790.0,209.0,-0.34375,3.652344,-10.109375,,,,,,,,,,
acc,1778672790.0,209.0,-0.34375,3.804688,-9.761719,,,,,,,,,,
acc,1778672790.0,209.0,-0.417969,3.691406,-9.761719,,,,,,,,,,
acc,1778672790.0,209.0,-0.226562,3.726562,-9.835938,,,,,,,,,,
acc,1778672790.0,209.0,-0.226562,3.957031,-9.914062,,,,,,,,,,
acc,1778672790.0,209.0,-0.265625,3.804688,-9.609375,,,,,,,,,,
acc,1778672790.0,209.0,-0.152344,3.882812,-10.109375,,,,,,,,,,
acc,1778672790.0,209.0,-0.34375,3.996094,-9.414062,,,,,,,,,,
acc,1778672790.0,209.0,-0.226562,3.921875,-10.113281,,,,,,,,,,
acc,1778672790.0,209.0,-0.191406,3.882812,-9.839844,,,,,,,,,,
acc,1778672790.0,209.0,-0.382812,3.726562,-9.800781,,,,,,,,,,
acc,1778672790.0,209.0,-0.535156,3.882812,-9.914062,,,,,,,,,,
acc,1778672790.0,209.0,-0.457031,3.613281,-9.730469,,,,,,,,,,
acc,1778672790.0,209.0,-0.457031,3.765625,-9.957031,,,,,,,,,,
acc,1778672790.0,209.0,-0.535156,3.726562,-9.609375,,,,,,,,,,
acc,1778672790.0,209.0,-0.417969,3.613281,-9.875,,,,,,,,,,
acc,1778672790.0,209.0,-0.457031,4.035156,-9.757812,,,,,,,,,,
acc,1778672790.0,209.0,-0.535156,3.882812,-9.914062,,,,,,,,,,
acc,1778672790.0,209.0,-0.613281,3.726562,-9.609375,,,,,,,,,,
acc,1778672790.0,209.0,-0.648438,3.726562,-9.957031,,,,,,,,,,
acc,1778672790.0,209.0,-0.417969,3.421875,-9.726562,,,,,,,,,,
acc,1778672790.0,209.0,-0.34375,3.613281,-9.648438,,,,,,,,,,
acc,1778672790.0,209.0,-0.457031,3.5,-10.148438,,,,,,,,,,
acc,1778672790.0,209.0,-0.457031,3.460938,-9.953125,,,,,,,,,,
acc,1778672791.0,210.0,-0.613281,3.921875,-9.761719,,,,,,,,,,
acc,1778672791.0,210.0,-0.34375,3.921875,-10.535156,,,,,,,,,,
acc,1778672791.0,210.0,-0.113281,4.035156,-9.574219,,,,,,,,,,
acc,1778672791.0,210.0,-0.417969,4.570312,-10.183594,,,,,,,,,,
acc,1778672791.0,210.0,-0.34375,4.457031,-9.992188,,,,,,,,,,
acc,1778672791.0,210.0,-0.191406,4.570312,-9.839844,,,,,,,,,,
acc,1778672791.0,210.0,-0.265625,4.265625,-9.730469,,,,,,,,,,
acc,1778672791.0,210.0,-0.304688,3.882812,-10.152344,,,,,,,,,,
acc,1778672791.0,210.0,-0.417969,3.84375,-9.574219,,,,,,,,,,
acc,1778672791.0,210.0,-0.34375,3.421875,-9.726562,,,,,,,,,,
acc,1778672791.0,210.0,-0.226562,3.34375,-10.074219,,,,,,,,,,
acc,1778672791.0,210.0,-0.191406,3.535156,-9.417969,,,,,,,,,,
acc,1778672791.0,210.0,-0.382812,3.574219,-9.996094,,,,,,,,,,
acc,1778672791.0,210.0,-0.417969,3.5,-9.757812,,,,,,,,,,
acc,1778672791.0,210.0,-0.191406,3.804688,-9.835938,,,,,,,,,,
acc,1778672791.0,210.0,-0.152344,3.882812,-9.953125,,,,,,,,,,
acc,1778672791.0,210.0,-0.34375,4.035156,-9.835938,,,,,,,,,,
acc,1778672791.0,210.0,-0.34375,4.074219,-10.035156,,,,,,,,,,
acc,1778672791.0,210.0,-0.265625,3.652344,-9.726562,,,,,,,,,,
acc,1778672791.0,210.0,-0.304688,3.308594,-9.761719,,,,,,,,,,
acc,1778672791.0,210.0,-0.417969,3.0,-9.835938,,,,,,,,,,
acc,1778672791.0,210.0,-0.417969,2.886719,-9.570312,,,,,,,,,,
acc,1778672791.0,210.0,-0.304688,3.0,-9.796875,,,,,,,,,,
acc,1778672791.0,210.0,-0.265625,3.0,-9.457031,,,,,,,,,,
acc,1778672791.0,210.0,-0.265625,2.847656,-9.53125,,,,,,,,,,
acc,1778672791.0,210.0,-0.417969,3.117188,-9.375,,,,,,,,,,
acc,1778672791.0,210.0,-0.265625,3.34375,-9.726562,,,,,,,,,,
acc,1778672791.0,210.0,-0.191406,3.804688,-9.730469,,,,,,,,,,
acc,1778672791.0,210.0,-0.113281,3.957031,-9.953125,,,,,,,,,,
acc,1778672791.0,210.0,0.0,3.921875,-9.496094,,,,,,,,,,
acc,1778672791.0,210.0,0.078125,3.84375,-9.730469,,,,,,,,,,
acc,1778672791.0,210.0,0.078125,3.765625,-9.652344,,,,,,,,,,
acc,1778672791.0,210.0,-0.304688,3.691406,-9.574219,,,,,,,,,,
acc,1778672791.0,210.0,-0.535156,3.765625,-9.726562,,,,,,,,,,
acc,1778672791.0,210.0,-0.496094,3.5,-9.914062,,,,,,,,,,
acc,1778672791.0,210.0,-0.34375,3.652344,-10.074219,,,,,,,,,,
acc,1778672791.0,210.0,-0.496094,4.457031,-9.914062,,,,,,,,,,
acc,1778672791.0,210.0,-0.574219,4.648438,-9.800781,,,,,,,,,,
acc,1778672791.0,210.0,-0.457031,4.457031,-10.148438,,,,,,,,,,
acc,1778672791.0,210.0,-0.382812,4.113281,-9.609375,,,,,,,,,,
acc,1778672791.0,210.0,-0.34375,4.074219,-10.179688,,,,,,,,,,
acc,1778672791.0,210.0,-0.226562,3.957031,-9.800781,,,,,,,,,,
acc,1778672791.0,210.0,-0.226562,3.921875,-9.6875,,,,,,,,,,
acc,1778672791.0,210.0,-0.191406,3.652344,-9.796875,,,,,,,,,,
acc,1778672791.0,210.0,0.0,3.191406,-9.6875,,,,,,,,,,
acc,1778672791.0,210.0,0.0,3.078125,-9.691406,,,,,,,,,,
acc,1778672791.0,210.0,0.0,3.269531,-9.875,,,,,,,,,,
acc,1778672791.0,210.0,-0.035156,3.269531,-9.875,,,,,,,,,,
acc,1778672791.0,210.0,0.039062,3.34375,-9.800781,,,,,,,,,,
acc,1778672791.0,210.0,-0.074219,3.957031,-9.996094,,,,,,,,,,
acc,1778672791.0,210.0,-0.226562,3.957031,-9.875,,,,,,,,,,
acc,1778672791.0,210.0,-0.304688,3.535156,-9.957031,,,,,,,,,,
acc,1778672791.0,210.0,-0.265625,3.117188,-9.570312,,,,,,,,,,
acc,1778672791.0,210.0,-0.265625,2.539062,-9.6875,,,,,,,,,,
acc,1778672791.0,210.0,-0.191406,2.503906,-9.53125,,,,,,,,,,
acc,1778672791.0,210.0,0.078125,2.925781,-9.648438,,,,,,,,,,
acc,1778672791.0,210.0,0.0,3.269531,-9.757812,,,,,,,,,,
acc,1778672791.0,210.0,-0.035156,3.921875,-9.761719,,,,,,,,,,
acc,1778672791.0,210.0,-0.074219,4.148438,-9.648438,,,,,,,,,,
acc,1778672791.0,210.0,-0.074219,4.1875,-9.652344,,,,,,,,,,
acc,1778672791.0,210.0,-0.074219,4.265625,-9.691406,,,,,,,,,,
acc,1778672791.0,210.0,-0.191406,4.226562,-9.6875,,,,,,,,,,
acc,1778672791.0,210.0,-0.265625,3.996094,-9.796875,,,,,,,,,,
acc,1778672791.0,210.0,-0.457031,4.113281,-10.148438,,,,,,,,,,
acc,1778672791.0,210.0,-0.535156,4.339844,-9.992188,,,,,,,,,,
acc,1778672791.0,210.0,-0.574219,4.53125,-10.183594,,,,,,,,,,
acc,1778672791.0,210.0,-0.496094,4.457031,-10.21875,,,,,,,,,,
acc,1778672791.0,210.0,-0.457031,4.496094,-9.757812,,,,,,,,,,
acc,1778672791.0,210.0,-0.074219,3.765625,-9.992188,,,,,,,,,,
acc,1778672791.0,210.0,0.191406,3.382812,-9.613281,,,,,,,,,,
acc,1778672791.0,210.0,-0.34375,4.113281,-9.914062,,,,,,,,,,
acc,1778672791.0,210.0,-0.191406,3.957031,-9.761719,,,,,,,,,,
acc,1778672791.0,210.0,-0.113281,3.691406,-10.113281,,,,,,,,,,
acc,1778672791.0,210.0,0.0,3.5,-9.574219,,,,,,,,,,
acc,1778672791.0,210.0,-0.226562,3.652344,-9.875,,,,,,,,,,
acc,1778672791.0,210.0,-0.226562,3.460938,-10.03125,,,,,,,,,,
acc,1778672791.0,210.0,-0.113281,3.691406,-9.917969,,,,,,,,,,
acc,1778672791.0,210.0,-0.382812,3.421875,-10.152344,,,,,,,,,,
acc,1778672791.0,210.0,-0.613281,3.191406,-10.070312,,,,,,,,,,
acc,1778672791.0,210.0,-0.648438,3.691406,-9.992188,,,,,,,,,,
acc,1778672791.0,210.0,-0.574219,3.652344,-10.179688,,,,,,,,,,
acc,1778672791.0,210.0,-0.457031,3.726562,-10.074219,,,,,,,,,,
acc,1778672791.0,210.0,-0.613281,3.84375,-10.257812,,,,,,,,,,
acc,1778672791.0,210.0,-0.804688,3.957031,-10.222656,,,,,,,,,,
acc,1778672791.0,210.0,-0.574219,3.652344,-9.761719,,,,,,,,,,
acc,1778672791.0,210.0,-0.226562,3.34375,-10.03125,,,,,,,,,,
acc,1778672791.0,210.0,-0.035156,3.152344,-9.453125,,,,,,,,,,
acc,1778672791.0,210.0,-0.226562,2.886719,-9.878906,,,,,,,,,,
acc,1778672791.0,210.0,-0.304688,2.925781,-9.957031,,,,,,,,,,
acc,1778672791.0,210.0,-0.34375,3.269531,-9.914062,,,,,,,,,,
acc,1778672791.0,210.0,-0.265625,3.460938,-10.222656,,,,,,,,,,
acc,1778672791.0,210.0,-0.382812,3.5,-10.257812,,,,,,,,,,
acc,1778672791.0,210.0,-0.839844,4.035156,-9.875,,,,,,,,,,
acc,1778672791.0,210.0,-0.957031,4.417969,-10.183594,,,,,,,,,,
acc,1778672791.0,210.0,-0.648438,4.226562,-10.035156,,,,,,,,,,
acc,1778672791.0,210.0,-0.304688,3.804688,-9.835938,,,,,,,,,,
acc,1778672791.0,210.0,-0.457031,3.535156,-9.835938,,,,,,,,,,
acc,1778672791.0,210.0,-0.574219,3.535156,-9.6875,,,,,,,,,,
acc,1778672791.0,210.0,-0.457031,3.804688,-9.878906,,,,,,,,,,
acc,1778672791.0,210.0,-0.34375,4.113281,-9.835938,,,,,,,,,,
acc,1778672791.0,210.0,-0.457031,4.113281,-9.835938,,,,,,,,,,
acc,1778672791.0,210.0,-0.496094,4.113281,-10.21875,,,,,,,,,,
acc,1778672791.0,210.0,-0.535156,3.765625,-9.878906,,,,,,,,,,
acc,1778672791.0,210.0,-0.457031,3.804688,-10.378906,,,,,,,,,,
acc,1778672791.0,210.0,-0.535156,4.113281,-10.074219,,,,,,,,,,
acc,1778672791.0,210.0,-0.804688,3.957031,-9.996094,,,,,,,,,,
acc,1778672791.0,210.0,-0.957031,3.652344,-9.800781,,,,,,,,,,
acc,1778672791.0,210.0,-0.804688,3.691406,-9.914062,,,,,,,,,,
acc,1778672791.0,210.0,-0.613281,4.1875,-9.492188,,,,,,,,,,
acc,1778672791.0,210.0,-0.648438,4.339844,-9.878906,,,,,,,,,,
acc,1778672791.0,210.0,-0.574219,4.074219,-9.953125,,,,,,,,,,
acc,1778672791.0,210.0,-0.648438,3.765625,-9.730469,,,,,,,,,,
acc,1778672791.0,210.0,-0.613281,3.460938,-10.335938,,,,,,,,,,
acc,1778672791.0,210.0,-0.34375,3.652344,-9.691406,,,,,,,,,,
acc,1778672791.0,210.0,-0.535156,4.265625,-9.457031,,,,,,,,,,
acc,1778672791.0,210.0,-0.535156,4.457031,-9.648438,,,,,,,,,,
acc,1778672791.0,210.0,-0.535156,4.839844,-9.492188,,,,,,,,,,
acc,1778672791.0,210.0,-0.648438,4.722656,-9.496094,,,,,,,,,,
acc,1778672791.0,210.0,-0.765625,4.226562,-9.613281,,,,,,,,,,
acc,1778672791.0,210.0,-0.496094,3.613281,-9.574219,,,,,,,,,,
acc,1778672791.0,210.0,-0.265625,3.421875,-9.648438,,,,,,,,,,
acc,1778672791.0,210.0,-0.191406,3.460938,-9.761719,,,,,,,,,,
acc,1778672791.0,210.0,-0.382812,3.652344,-9.757812,,,,,,,,,,
acc,1778672791.0,210.0,-0.574219,3.882812,-9.6875,,,,,,,,,,
acc,1778672792.0,211.0,-0.417969,4.226562,-9.835938,,,,,,,,,,
acc,1778672792.0,211.0,-0.457031,4.570312,-9.347656,,,,,,,,,,
acc,1778672792.0,211.0,-0.417969,4.570312,-9.648438,,,,,,,,,,
acc,1778672792.0,211.0,-0.226562,4.648438,-9.226562,,,,,,,,,,
acc,1778672792.0,211.0,-0.265625,4.570312,-8.957031,,,,,,,,,,
acc,1778672792.0,211.0,-0.226562,3.882812,-9.414062,,,,,,,,,,
acc,1778672792.0,211.0,-0.265625,3.613281,-9.308594,,,,,,,,,,
acc,1778672792.0,211.0,-0.226562,3.691406,-9.613281,,,,,,,,,,
acc,1778672792.0,211.0,-0.648438,4.265625,-9.609375,,,,,,,,,,
acc,1778672792.0,211.0,-0.839844,4.496094,-9.648438,,,,,,,,,,
acc,1778672792.0,211.0,-0.6875,4.914062,-9.417969,,,,,,,,,,
acc,1778672792.0,211.0,-0.648438,4.6875,-9.308594,,,,,,,,,,
acc,1778672792.0,211.0,-0.417969,3.921875,-9.34375,,,,,,,,,,
acc,1778672792.0,211.0,-0.265625,3.726562,-9.652344,,,,,,,,,,
acc,1778672792.0,211.0,-0.382812,3.460938,-9.53125,,,,,,,,,,
acc,1778672792.0,211.0,-0.34375,3.382812,-9.800781,,,,,,,,,,
acc,1778672792.0,211.0,-0.304688,3.421875,-9.691406,,,,,,,,,,
acc,1778672792.0,211.0,-0.035156,3.691406,-9.269531,,,,,,,,,,
acc,1778672792.0,211.0,0.039062,4.113281,-9.375,,,,,,,,,,
acc,1778672792.0,211.0,0.078125,4.148438,-9.070312,,,,,,,,,,
acc,1778672792.0,211.0,-0.113281,3.726562,-9.375,,,,,,,,,,
acc,1778672792.0,211.0,-0.113281,3.5,-9.800781,,,,,,,,,,
acc,1778672792.0,211.0,-0.074219,3.382812,-9.535156,,,,,,,,,,
acc,1778672792.0,211.0,-0.265625,3.613281,-9.957031,,,,,,,,,,
acc,1778672792.0,211.0,-0.382812,3.84375,-9.691406,,,,,,,,,,
acc,1778672792.0,211.0,-0.304688,4.570312,-9.496094,,,,,,,,,,
acc,1778672792.0,211.0,-0.382812,5.261719,-9.414062,,,,,,,,,,
acc,1778672792.0,211.0,-0.191406,4.992188,-9.230469,,,,,,,,,,
acc,1778672792.0,211.0,-0.152344,4.761719,-9.148438,,,,,,,,,,
acc,1778672792.0,211.0,-0.152344,4.1875,-9.375,,,,,,,,,,
acc,1778672792.0,211.0,-0.035156,3.921875,-9.417969,,,,,,,,,,
acc,1778672792.0,211.0,-0.035156,4.148438,-9.570312,,,,,,,,,,
acc,1778672792.0,211.0,-0.074219,3.921875,-9.953125,,,,,,,,,,
acc,1778672792.0,211.0,-0.113281,3.691406,-9.878906,,,,,,,,,,
acc,1778672792.0,211.0,-0.34375,3.84375,-9.757812,,,,,,,,,,
acc,1778672792.0,211.0,-0.265625,3.996094,-9.652344,,,,,,,,,,
acc,1778672792.0,211.0,-0.074219,4.457031,-9.6875,,,,,,,,,,
acc,1778672792.0,211.0,0.039062,4.457031,-9.414062,,,,,,,,,,
acc,1778672792.0,211.0,-0.152344,4.265625,-9.535156,,,,,,,,,,
acc,1778672792.0,211.0,-0.265625,3.921875,-9.835938,,,,,,,,,,
acc,1778672792.0,211.0,-0.304688,3.957031,-9.652344,,,,,,,,,,
acc,1778672792.0,211.0,-0.191406,3.613281,-9.839844,,,,,,,,,,
acc,1778672792.0,211.0,-0.035156,3.421875,-9.917969,,,,,,,,,,
acc,1778672792.0,211.0,-0.113281,3.613281,-9.574219,,,,,,,,,,
acc,1778672792.0,211.0,-0.226562,3.078125,-9.691406,,,,,,,,,,
acc,1778672792.0,211.0,-0.113281,3.039062,-9.757812,,,,,,,,,,
acc,1778672792.0,211.0,-0.074219,3.308594,-9.378906,,,,,,,,,,
acc,1778672792.0,211.0,-0.152344,3.230469,-9.796875,,,,,,,,,,
acc,1778672792.0,211.0,-0.191406,3.460938,-9.570312,,,,,,,,,,
acc,1778672792.0,211.0,-0.035156,3.230469,-9.570312,,,,,,,,,,
acc,1778672792.0,211.0,-0.113281,3.230469,-9.613281,,,,,,,,,,
acc,1778672792.0,211.0,-0.152344,3.691406,-10.070312,,,,,,,,,,
acc,1778672792.0,211.0,-0.34375,3.804688,-9.957031,,,,,,,,,,
acc,1778672792.0,211.0,-0.34375,3.574219,-10.152344,,,,,,,,,,
acc,1778672792.0,211.0,-0.304688,3.535156,-10.035156,,,,,,,,,,
acc,1778672792.0,211.0,-0.304688,3.421875,-9.875,,,,,,,,,,
acc,1778672792.0,211.0,-0.152344,3.574219,-10.035156,,,,,,,,,,
acc,1778672792.0,211.0,-0.152344,3.765625,-9.726562,,,,,,,,,,
acc,1778672792.0,211.0,-0.382812,3.574219,-9.917969,,,,,,,,,,
acc,1778672792.0,211.0,-0.457031,3.652344,-10.03125,,,,,,,,,,
acc,1778672792.0,211.0,-0.34375,3.996094,-9.757812,,,,,,,,,,
acc,1778672792.0,211.0,-0.074219,4.53125,-9.757812,,,,,,,,,,
acc,1778672792.0,211.0,0.0,4.53125,-9.457031,,,,,,,,,,
