sensor,time,t,ax,ay,az,wx,wy,wz,lat,lon,alt,v_kmh,satellites,x,y
acc,1778673004.0,3.0,-0.074219,0.128906,-9.796875,,,,,,,,,,
acc,1778673004.0,3.0,-0.074219,0.164062,-9.800781,,,,,,,,,,
acc,1778673004.0,3.0,-0.074219,0.128906,-9.839844,,,,,,,,,,
acc,1778673004.0,3.0,-0.074219,0.128906,-9.839844,,,,,,,,,,
acc,1778673004.0,3.0,-0.074219,0.164062,-9.835938,,,,,,,,,,
acc,1778673004.0,3.0,-0.074219,0.164062,-9.835938,,,,,,,,,,
acc,1778673004.0,3.0,-0.113281,0.164062,-9.839844,,,,,,,,,,
acc,1778673004.0,3.0,-0.113281,0.164062,-9.796875,,,,,,,,,,
acc,1778673004.0,3.0,-0.074219,0.164062,-9.757812,,,,,,,,,,
acc,1778673004.0,3.0,-0.074219,0.164062,-9.835938,,,,,,,,,,
acc,1778673004.0,3.0,-0.074219,0.164062,-9.835938,,,,,,,,,,
acc,1778673004.0,3.0,-0.074219,0.164062,-9.835938,,,,,,,,,,
acc,1778673004.0,3.0,-0.074219,0.128906,-9.839844,,,,,,,,,,
acc,1778673004.0,3.0,-0.074219,0.164062,-9.835938,,,,,,,,,,
acc,1778673004.0,3.0,-0.074219,0.164062,-9.800781,,,,,,,,,,
acc,1778673004.0,3.0,-0.074219,0.164062,-9.800781,,,,,,,,,,
acc,1778673004.0,3.0,-0.074219,0.203125,-9.800781,,,,,,,,,,
acc,1778673004.0,3.0,-0.113281,0.164062,-9.839844,,,,,,,,,,
acc,1778673004.0,3.0,-0.074219,0.164062,-9.800781,,,,,,,,,,
acc,1778673004.0,3.0,-0.113281,0.164062,-9.796875,,,,,,,,,,
acc,1778673004.0,3.0,-0.074219,0.164062,-9.835938,,,,,,,,,,
acc,1778673004.0,3.0,-0.074219,0.164062,-9.800781,,,,,,,,,,
acc,1778673004.0,3.0,-0.074219,0.164062,-9.800781,,,,,,,,,,
acc,1778673004.0,3.0,-0.074219,0.164062,-9.800781,,,,,,,,,,
acc,1778673004.0,3.0,-0.074219,0.164062,-9.800781,,,,,,,,,,
acc,1778673004.0,3.0,-0.074219,0.164062,-9.800781,,,,,,,,,,
acc,1778673004.0,3.0,-0.113281,0.128906,-9.757812,,,,,,,,,,
acc,1778673004.0,3.0,-0.074219,0.164062,-9.757812,,,,,,,,,,
acc,1778673004.0,3.0,-0.074219,0.128906,-9.796875,,,,,,,,,,
acc,1778673004.0,3.0,-0.074219,0.128906,-9.796875,,,,,,,,,,
acc,1778673004.0,3.0,-0.074219,0.128906,-9.796875,,,,,,,,,,
acc,1778673004.0,3.0,-0.074219,0.128906,-9.796875,,,,,,,,,,
acc,1778673004.0,3.0,-0.074219,0.164062,-9.800781,,,,,,,,,,
acc,1778673004.0,3.0,-0.074219,0.164062,-9.800781,,,,,,,,,,
acc,1778673004.0,3.0,-0.074219,0.128906,-9.796875,,,,,,,,,,
acc,1778673004.0,3.0,-0.074219,0.164062,-9.800781,,,,,,,,,,
acc,1778673004.0,3.0,-0.074219,0.164062,-9.800781,,,,,,,,,,
acc,1778673004.0,3.0,-0.074219,0.164062,-9.800781,,,,,,,,,,
acc,1778673004.0,3.0,-0.035156,0.128906,-9.800781,,,,,,,,,,
acc,1778673004.0,3.0,-0.074219,0.164062,-9.800781,,,,,,,,,,
acc,1778673004.0,3.0,-0.035156,0.128906,-9.757812,,,,,,,,,,
acc,1778673004.0,3.0,-0.035156,0.164062,-9.796875,,,,,,,,,,
acc,1778673004.0,3.0,-0.074219,0.128906,-9.796875,,,,,,,,,,
acc,1778673004.0,3.0,-0.074219,0.164062,-9.800781,,,,,,,,,,
acc,1778673004.0,3.0,-0.074219,0.164062,-9.800781,,,,,,,,,,
acc,1778673004.0,3.0,-0.074219,0.164062,-9.800781,,,,,,,,,,
acc,1778673004.0,3.0,-0.074219,0.164062,-9.800781,,,,,,,,,,
acc,1778673004.0,3.0,-0.074219,0.203125,-9.835938,,,,,,,,,,
acc,1778673004.0,3.0,-0.074219,0.164062,-9.835938,,,,,,,,,,
acc,1778673004.0,3.0,-0.074219,0.164062,-9.800781,,,,,,,,,,
acc,1778673004.0,3.0,-0.074219,0.164062,-9.800781,,,,,,,,,,
acc,1778673004.0,3.0,-0.074219,0.164062,-9.800781,,,,,,,,,,
acc,1778673004.0,3.0,-0.074219,0.164062,-9.800781,,,,,,,,,,
acc,1778673004.0,3.0,-0.035156,0.128906,-9.800781,,,,,,,,,,
acc,1778673004.0,3.0,-0.035156,0.128906,-9.835938,,,,,,,,,,
acc,1778673004.0,3.0,-0.074219,0.128906,-9.839844,,,,,,,,,,
acc,1778673004.0,3.0,-0.074219,0.164062,-9.835938,,,,,,,,,,
acc,1778673004.0,3.0,-0.074219,0.164062,-9.800781,,,,,,,,,,
acc,1778673004.0,3.0,-0.074219,0.164062,-9.800781,,,,,,,,,,
acc,1778673004.0,3.0,-0.113281,0.164062,-9.796875,,,,,,,,,,
acc,1778673004.0,3.0,-0.113281,0.164062,-9.796875,,,,,,,,,,
acc,1778673004.0,3.0,-0.074219,0.164062,-9.800781,,,,,,,,,,
acc,1778673004.0,3.0,-0.074219,0.164062,-9.800781,,,,,,,,,,
acc,1778673004.0,3.0,-0.074219,0.164062,-9.800781,,,,,,,,,,
acc,1778673004.0,3.0,-0.074219,0.164062,-9.800781,,,,,,,,,,
acc,1778673004.0,3.0,-0.074219,0.128906,-9.761719,,,,,,,,,,
acc,1778673004.0,3.0,-0.074219,0.164062,-9.800781,,,,,,,,,,
acc,1778673004.0,3.0,-0.113281,0.164062,-9.796875,,,,,,,,,,
acc,1778673004.0,3.0,-0.074219,0.164062,-9.800781,,,,,,,,,,
acc,1778673004.0,3.0,-0.074219,0.164062,-9.800781,,,,,,,,,,
acc,1778673004.0,3.0,-0.074219,0.164062,-9.800781,,,,,,,,,,
acc,1778673004.0,3.0,-0.074219,0.128906,-9.796875,,,,,,,,,,
acc,1778673004.0,3.0,-0.074219,0.203125,-9.800781,,,,,,,,,,
acc,1778673004.0,3.0,-0.074219,0.164062,-9.800781,,,,,,,,,,
acc,1778673004.0,3.0,-0.074219,0.164062,-9.800781,,,,,,,,,,
acc,1778673004.0,3.0,-0.074219,0.164062,-9.800781,,,,,,,,,,
acc,1778673004.0,3.0,-0.074219,0.164062,-9.800781,,,,,,,,,,
acc,1778673004.0,3.0,-0.074219,0.164062,-9.800781,,,,,,,,,,
acc,1778673004.0,3.0,-0.074219,0.164062,-9.800781,,,,,,,,,,
acc,1778673004.0,3.0,-0.074219,0.164062,-9.800781,,,,,,,,,,
acc,1778673004.0,3.0,-0.074219,0.164062,-9.800781,,,,,,,,,,
acc,1778673004.0,3.0,-0.074219,0.164062,-9.835938,,,,,,,,,,
acc,1778673004.0,3.0,-0.074219,0.164062,-9.835938,,,,,,,,,,
acc,1778673004.0,3.0,-0.074219,0.164062,-9.800781,,,,,,,,,,
acc,1778673004.0,3.0,-0.074219,0.164062,-9.800781,,,,,,,,,,
acc,1778673004.0,3.0,-0.074219,0.164062,-9.800781,,,,,,,,,,
acc,1778673004.0,3.0,-0.074219,0.164062,-9.800781,,,,,,,,,,
acc,1778673004.0,3.0,-0.074219,0.164062,-9.835938,,,,,,,,,,
acc,1778673004.0,3.0,-0.074219,0.164062,-9.800781,,,,,,,,,,
acc,1778673004.0,3.0,-0.074219,0.164062,-9.800781,,,,,,,,,,
acc,1778673004.0,3.0,-0.035156,0.164062,-9.796875,,,,,,,,,,
acc,1778673004.0,3.0,-0.074219,0.128906,-9.796875,,,,,,,,,,
acc,1778673004.0,3.0,-0.074219,0.128906,-9.796875,,,,,,,,,,
acc,1778673004.0,3.0,-0.074219,0.128906,-9.761719,,,,,,,,,,
acc,1778673004.0,3.0,-0.074219,0.164062,-9.800781,,,,,,,,,,
acc,1778673004.0,3.0,-0.074219,0.128906,-9.796875,,,,,,,,,,
acc,1778673004.0,3.0,-0.074219,0.164062,-9.800781,,,,,,,,,,
acc,1778673004.0,3.0,-0.074219,0.128906,-9.796875,,,,,,,,,,
acc,1778673004.0,3.0,-0.074219,0.128906,-9.796875,,,,,,,,,,
acc,1778673004.0,3.0,-0.074219,0.164062,-9.800781,,,,,,,,,,
acc,1778673004.0,3.0,-0.035156,0.164062,-9.796875,,,,,,,,,,
acc,1778673004.0,3.0,-0.074219,0.164062,-9.835938,,,,,,,,,,
acc,1778673004.0,3.0,-0.074219,0.164062,-9.800781,,,,,,,,,,
acc,1778673004.0,3.0,-0.074219,0.203125,-9.757812,,,,,,,,,,
acc,1778673004.0,3.0,-0.074219,0.164062,-9.800781,,,,,,,,,,
acc,1778673004.0,3.0,-0.074219,0.164062,-9.800781,,,,,,,,,,
acc,1778673004.0,3.0,-0.074219,0.164062,-9.835938,,,,,,,,,,
acc,1778673004.0,3.0,-0.074219,0.164062,-9.800781,,,,,,,,,,
acc,1778673004.0,3.0,-0.074219,0.164062,-9.800781,,,,,,,,,,
acc,1778673004.0,3.0,-0.074219,0.164062,-9.800781,,,,,,,,,,
acc,1778673004.0,3.0,-0.074219,0.164062,-9.800781,,,,,,,,,,
acc,1778673004.0,3.0,-0.074219,0.164062,-9.800781,,,,,,,,,,
acc,1778673004.0,3.0,-0.074219,0.164062,-9.835938,,,,,,,,,,
acc,1778673004.0,3.0,-0.074219,0.164062,-9.800781,,,,,,,,,,
acc,1778673004.0,3.0,-0.074219,0.164062,-9.800781,,,,,,,,,,
acc,1778673004.0,3.0,-0.074219,0.164062,-9.800781,,,,,,,,,,
acc,1778673004.0,3.0,-0.074219,0.164062,-9.800781,,,,,,,,,,
acc,1778673004.0,3.0,-0.074219,0.164062,-9.800781,,,,,,,,,,
acc,1778673004.0,3.0,-0.074219,0.164062,-9.835938,,,,,,,,,,
acc,1778673004.0,3.0,-0.074219,0.164062,-9.800781,,,,,,,,,,
acc,1778673004.0,3.0,-0.074219,0.164062,-9.835938,,,,,,,,,,
acc,1778673004.0,3.0,-0.074219,0.164062,-9.800781,,,,,,,,,,
acc,1778673004.0,3.0,-0.074219,0.164062,-9.800781,,,,,,,,,,
acc,1778673004.0,3.0,-0.074219,0.164062,-9.800781,,,,,,,,,,
acc,1778673004.0,3.0,-0.074219,0.164062,-9.800781,,,,,,,,,,
acc,1778673005.0,4.0,-0.074219,0.164062,-9.800781,,,,,,,,,,
acc,1778673005.0,4.0,-0.074219,0.164062,-9.800781,,,,,,,,,,
acc,1778673005.0,4.0,-0.074219,0.128906,-9.796875,,,,,,,,,,
acc,1778673005.0,4.0,-0.074219,0.164062,-9.800781,,,,,,,,,,
acc,1778673005.0,4.0,-0.074219,0.164062,-9.800781,,,,,,,,,,
acc,1778673005.0,4.0,-0.074219,0.128906,-9.796875,,,,,,,,,,
acc,1778673005.0,4.0,-0.074219,0.128906,-9.796875,,,,,,,,,,
acc,1778673005.0,4.0,-0.035156,0.128906,-9.800781,,,,,,,,,,
acc,1778673005.0,4.0,-0.074219,0.128906,-9.796875,,,,,,,,,,
acc,1778673005.0,4.0,-0.074219,0.128906,-9.761719,,,,,,,,,,
acc,1778673005.0,4.0,-0.074219,0.164062,-9.800781,,,,,,,,,,
acc,1778673005.0,4.0,-0.074219,0.164062,-9.800781,,,,,,,,,,
acc,1778673005.0,4.0,-0.074219,0.164062,-9.800781,,,,,,,,,,
acc,1778673005.0,4.0,-0.074219,0.128906,-9.796875,,,,,,,,,,
acc,1778673005.0,4.0,-0.074219,0.128906,-9.796875,,,,,,,,,,
acc,1778673005.0,4.0,-0.074219,0.128906,-9.796875,,,,,,,,,,
acc,1778673005.0,4.0,-0.074219,0.164062,-9.800781,,,,,,,,,,
acc,1778673005.0,4.0,-0.035156,0.164062,-9.796875,,,,,,,,,,
acc,1778673005.0,4.0,-0.074219,0.164062,-9.800781,,,,,,,,,,
acc,1778673005.0,4.0,-0.074219,0.164062,-9.800781,,,,,,,,,,
acc,1778673005.0,4.0,-0.074219,0.128906,-9.839844,,,,,,,,,,
acc,1778673005.0,4.0,-0.074219,0.164062,-9.800781,,,,,,,,,,
acc,1778673005.0,4.0,-0.074219,0.164062,-9.800781,,,,,,,,,,
acc,1778673005.0,4.0,-0.074219,0.164062,-9.757812,,,,,,,,,,
acc,1778673005.0,4.0,-0.074219,0.164062,-9.800781,,,,,,,,,,
acc,1778673005.0,4.0,-0.074219,0.164062,-9.800781,,,,,,,,,,
acc,1778673005.0,4.0,-0.113281,0.164062,-9.796875,,,,,,,,,,
acc,1778673005.0,4.0,-0.074219,0.164062,-9.800781,,,,,,,,,,
acc,1778673005.0,4.0,-0.074219,0.164062,-9.800781,,,,,,,,,,
acc,1778673005.0,4.0,-0.074219,0.164062,-9.800781,,,,,,,,,,
acc,1778673005.0,4.0,-0.074219,0.164062,-9.757812,,,,,,,,,,
acc,1778673005.0,4.0,-0.074219,0.164062,-9.800781,,,,,,,,,,
acc,1778673005.0,4.0,-0.074219,0.164062,-9.800781,,,,,,,,,,
acc,1778673005.0,4.0,-0.074219,0.164062,-9.800781,,,,,,,,,,
acc,1778673005.0,4.0,-0.074219,0.164062,-9.835938,,,,,,,,,,
acc,1778673005.0,4.0,-0.113281,0.164062,-9.796875,,,,,,,,,,
acc,1778673005.0,4.0,-0.074219,0.164062,-9.800781,,,,,,,,,,
acc,1778673005.0,4.0,-0.074219,0.164062,-9.800781,,,,,,,,,,
acc,1778673005.0,4.0,-0.074219,0.128906,-9.796875,,,,,,,,,,
acc,1778673005.0,4.0,-0.074219,0.164062,-9.800781,,,,,,,,,,
acc,1778673005.0,4.0,-0.074219,0.164062,-9.835938,,,,,,,,,,
acc,1778673005.0,4.0,-0.074219,0.164062,-9.835938,,,,,,,,,,
acc,1778673005.0,4.0,-0.074219,0.164062,-9.800781,,,,,,,,,,
acc,1778673005.0,4.0,-0.074219,0.164062,-9.800781,,,,,,,,,,
acc,1778673005.0,4.0,-0.074219,0.128906,-9.796875,,,,,,,,,,
acc,1778673005.0,4.0,-0.035156,0.164062,-9.796875,,,,,,,,,,
acc,1778673005.0,4.0,-0.035156,0.164062,-9.796875,,,,,,,,,,
acc,1778673005.0,4.0,-0.074219,0.164062,-9.800781,,,,,,,,,,
acc,1778673005.0,4.0,-0.074219,0.164062,-9.800781,,,,,,,,,,
acc,1778673005.0,4.0,-0.074219,0.164062,-9.800781,,,,,,,,,,
acc,1778673005.0,4.0,-0.074219,0.164062,-9.800781,,,,,,,,,,
acc,1778673005.0,4.0,-0.074219,0.164062,-9.800781,,,,,,,,,,
acc,1778673005.0,4.0,-0.074219,0.164062,-9.800781,,,,,,,,,,
acc,1778673005.0,4.0,-0.074219,0.164062,-9.800781,,,,,,,,,,
acc,1778673005.0,4.0,-0.074219,0.164062,-9.800781,,,,,,,,,,
acc,1778673005.0,4.0,-0.074219,0.164062,-9.800781,,,,,,,,,,
acc,1778673005.0,4.0,-0.113281,0.128906,-9.800781,,,,,,,,,,
acc,1778673005.0,4.0,-0.074219,0.164062,-9.800781,,,,,,,,,,
acc,1778673005.0,4.0,-0.074219,0.164062,-9.757812,,,,,,,,,,
acc,1778673005.0,4.0,-0.074219,0.128906,-9.796875,,,,,,,,,,
acc,1778673005.0,4.0,-0.113281,0.128906,-9.800781,,,,,,,,,,
acc,1778673005.0,4.0,-0.035156,0.164062,-9.796875,,,,,,,,,,
acc,1778673005.0,4.0,-0.074219,0.164062,-9.800781,,,,,,,,,,
acc,1778673005.0,4.0,-0.074219,0.128906,-9.839844,,,,,,,,,,
acc,1778673005.0,4.0,-0.074219,0.164062,-9.730469,,,,,,,,,,
acc,1778673005.0,4.0,-0.035156,0.164062,-9.761719,,,,,,,,,,
acc,1778673005.0,4.0,-0.074219,0.164062,-9.835938,,,,,,,,,,
acc,1778673005.0,4.0,-0.074219,0.164062,-9.835938,,,,,,,,,,
acc,1778673005.0,4.0,-0.074219,0.164062,-9.835938,,,,,,,,,,
acc,1778673005.0,4.0,-0.035156,0.128906,-9.757812,,,,,,,,,,
acc,1778673005.0,4.0,-0.035156,0.164062,-9.796875,,,,,,,,,,
acc,1778673005.0,4.0,-0.035156,0.164062,-9.796875,,,,,,,,,,
acc,1778673005.0,4.0,-0.074219,0.164062,-9.835938,,,,,,,,,,
acc,1778673005.0,4.0,-0.074219,0.164062,-9.835938,,,,,,,,,,
acc,1778673005.0,4.0,-0.074219,0.164062,-9.800781,,,,,,,,,,
acc,1778673005.0,4.0,-0.074219,0.164062,-9.800781,,,,,,,,,,
acc,1778673005.0,4.0,-0.074219,0.164062,-9.800781,,,,,,,,,,
acc,1778673005.0,4.0,-0.035156,0.128906,-9.757812,,,,,,,,,,
acc,1778673005.0,4.0,-0.074219,0.164062,-9.757812,,,,,,,,,,
acc,1778673005.0,4.0,-0.035156,0.164062,-9.796875,,,,,,,,,,
acc,1778673005.0,4.0,-0.035156,0.164062,-9.796875,,,,,,,,,,
acc,1778673005.0,4.0,-0.074219,0.128906,-9.796875,,,,,,,,,,
acc,1778673005.0,4.0,-0.074219,0.128906,-9.839844,,,,,,,,,,
acc,1778673005.0,4.0,-0.074219,0.164062,-9.800781,,,,,,,,,,
acc,1778673005.0,4.0,-0.074219,0.128906,-9.796875,,,,,,,,,,
acc,1778673005.0,4.0,-0.113281,0.128906,-9.757812,,,,,,,,,,
acc,1778673005.0,4.0,-0.113281,0.164062,-9.796875,,,,,,,,,,
acc,1778673005.0,4.0,-0.074219,0.164062,-9.835938,,,,,,,,,,
acc,1778673005.0,4.0,-0.113281,0.128906,-9.800781,,,,,,,,,,
acc,1778673005.0,4.0,-0.113281,0.164062,-9.796875,,,,,,,,,,
acc,1778673005.0,4.0,-0.074219,0.164062,-9.835938,,,,,,,,,,
acc,1778673005.0,4.0,-0.074219,0.164062,-9.800781,,,,,,,,,,
acc,1778673005.0,4.0,-0.074219,0.164062,-9.800781,,,,,,,,,,
acc,1778673005.0,4.0,-0.074219,0.128906,-9.839844,,,,,,,,,,
acc,1778673005.0,4.0,-0.113281,0.164062,-9.796875,,,,,,,,,,
acc,1778673005.0,4.0,-0.074219,0.164062,-9.835938,,,,,,,,,,
acc,1778673006.0,5.0,-0.074219,0.164062,-9.800781,,,,,,,,,,
acc,1778673006.0,5.0,-0.074219,0.164062,-9.835938,,,,,,,,,,
acc,1778673006.0,5.0,-0.074219,0.164062,-9.800781,,,,,,,,,,
acc,1778673006.0,5.0,-0.074219,0.164062,-9.800781,,,,,,,,,,
acc,1778673006.0,5.0,-0.074219,0.164062,-9.800781,,,,,,,,,,
acc,1778673006.0,5.0,-0.074219,0.203125,-9.800781,,,,,,,,,,
acc,1778673006.0,5.0,-0.074219,0.164062,-9.835938,,,,,,,,,,
acc,1778673006.0,5.0,-0.074219,0.164062,-9.800781,,,,,,,,,,
acc,1778673006.0,5.0,-0.074219,0.203125,-9.800781,,,,,,,,,,
acc,1778673006.0,5.0,-0.035156,0.164062,-9.796875,,,,,,,,,,
acc,1778673006.0,5.0,-0.035156,0.164062,-9.796875,,,,,,,,,,
acc,1778673006.0,5.0,-0.074219,0.164062,-9.800781,,,,,,,,,,
acc,1778673006.0,5.0,-0.074219,0.128906,-9.796875,,,,,,,,,,
acc,1778673006.0,5.0,-0.074219,0.164062,-9.800781,,,,,,,,,,
acc,1778673006.0,5.0,-0.074219,0.128906,-9.839844,,,,,,,,,,
acc,1778673006.0,5.0,-0.074219,0.164062,-9.800781,,,,,,,,,,
acc,1778673006.0,5.0,-0.113281,0.164062,-9.796875,,,,,,,,,,
acc,1778673006.0,5.0,-0.074219,0.128906,-9.796875,,,,,,,,,,
acc,1778673006.0,5.0,-0.074219,0.164062,-9.800781,,,,,,,,,,
acc,1778673006.0,5.0,-0.113281,0.164062,-9.796875,,,,,,,,,,
acc,1778673006.0,5.0,-0.113281,0.128906,-9.800781,,,,,,,,,,
acc,1778673006.0,5.0,-0.074219,0.128906,-9.839844,,,,,,,,,,
acc,1778673006.0,5.0,-0.074219,0.128906,-9.796875,,,,,,,,,,
acc,1778673006.0,5.0,-0.113281,0.164062,-9.796875,,,,,,,,,,
acc,1778673006.0,5.0,-0.113281,0.128906,-9.800781,,,,,,,,,,
acc,1778673006.0,5.0,-0.074219,0.128906,-9.796875,,,,,,,,,,
acc,1778673006.0,5.0,-0.074219,0.128906,-9.796875,,,,,,,,,,
acc,1778673006.0,5.0,-0.074219,0.128906,-9.796875,,,,,,,,,,
acc,1778673006.0,5.0,-0.074219,0.164062,-9.800781,,,,,,,,,,
acc,1778673006.0,5.0,-0.074219,0.164062,-9.800781,,,,,,,,,,
acc,1778673006.0,5.0,-0.113281,0.128906,-9.800781,,,,,,,,,,
acc,1778673006.0,5.0,-0.074219,0.164062,-9.800781,,,,,,,,,,
acc,1778673006.0,5.0,-0.035156,0.164062,-9.796875,,,,,,,,,,
acc,1778673006.0,5.0,-0.074219,0.128906,-9.839844,,,,,,,,,,
acc,1778673006.0,5.0,-0.035156,0.164062,-9.796875,,,,,,,,,,
acc,1778673006.0,5.0,-0.074219,0.164062,-9.800781,,,,,,,,,,
acc,1778673006.0,5.0,-0.074219,0.164062,-9.800781,,,,,,,,,,
acc,1778673006.0,5.0,-0.035156,0.164062,-9.796875,,,,,,,,,,
acc,1778673006.0,5.0,-0.074219,0.164062,-9.800781,,,,,,,,,,
acc,1778673006.0,5.0,-0.074219,0.164062,-9.800781,,,,,,,,,,
acc,1778673006.0,5.0,-0.035156,0.164062,-9.796875,,,,,,,,,,
acc,1778673006.0,5.0,-0.074219,0.164062,-9.757812,,,,,,,,,,
acc,1778673006.0,5.0,-0.035156,0.164062,-9.796875,,,,,,,,,,
acc,1778673006.0,5.0,-0.074219,0.164062,-9.800781,,,,,,,,,,
acc,1778673006.0,5.0,-0.035156,0.203125,-9.796875,,,,,,,,,,
acc,1778673006.0,5.0,-0.074219,0.164062,-9.800781,,,,,,,,,,
acc,1778673006.0,5.0,-0.074219,0.164062,-9.835938,,,,,,,,,,
acc,1778673006.0,5.0,-0.035156,0.164062,-9.796875,,,,,,,,,,
acc,1778673006.0,5.0,-0.074219,0.164062,-9.800781,,,,,,,,,,
acc,1778673006.0,5.0,-0.035156,0.164062,-9.796875,,,,,,,,,,
acc,1778673006.0,5.0,-0.035156,0.164062,-9.796875,,,,,,,,,,
acc,1778673006.0,5.0,-0.074219,0.164062,-9.800781,,,,,,,,,,
acc,1778673006.0,5.0,-0.035156,0.164062,-9.796875,,,,,,,,,,
acc,1778673006.0,5.0,-0.035156,0.164062,-9.796875,,,,,,,,,,
acc,1778673006.0,5.0,-0.035156,0.128906,-9.800781,,,,,,,,,,
acc,1778673006.0,5.0,-0.074219,0.164062,-9.800781,,,,,,,,,,
acc,1778673006.0,5.0,-0.074219,0.164062,-9.835938,,,,,,,,,,
acc,1778673006.0,5.0,-0.035156,0.164062,-9.761719,,,,,,,,,,
acc,1778673006.0,5.0,-0.035156,0.164062,-9.796875,,,,,,,,,,
acc,1778673006.0,5.0,-0.074219,0.128906,-9.796875,,,,,,,,,,
acc,1778673006.0,5.0,-0.035156,0.164062,-9.761719,,,,,,,,,,
acc,1778673006.0,5.0,-0.074219,0.164062,-9.835938,,,,,,,,,,
acc,1778673006.0,5.0,-0.035156,0.164062,-9.796875,,,,,,,,,,
acc,1778673006.0,5.0,-0.074219,0.203125,-9.835938,,,,,,,,,,
acc,1778673006.0,5.0,-0.074219,0.164062,-9.800781,,,,,,,,,,
acc,1778673006.0,5.0,-0.074219,0.164062,-9.757812,,,,,,,,,,
acc,1778673006.0,5.0,-0.074219,0.164062,-9.835938,,,,,,,,,,
acc,1778673006.0,5.0,-0.113281,0.164062,-9.761719,,,,,,,,,,
acc,1778673006.0,5.0,-0.074219,0.164062,-9.835938,,,,,,,,,,
acc,1778673006.0,5.0,-0.113281,0.164062,-9.796875,,,,,,,,,,
acc,1778673006.0,5.0,-0.113281,0.128906,-9.800781,,,,,,,,,,
acc,1778673006.0,5.0,-0.113281,0.128906,-9.835938,,,,,,,,,,
acc,1778673006.0,5.0,-0.113281,0.164062,-9.761719,,,,,,,,,,
acc,1778673006.0,5.0,-0.152344,0.164062,-9.796875,,,,,,,,,,
acc,1778673006.0,5.0,-0.191406,0.128906,-9.761719,,,,,,,,,,
acc,1778673006.0,5.0,-0.226562,0.164062,-9.796875,,,,,,,,,,
acc,1778673006.0,5.0,-0.191406,0.164062,-9.757812,,,,,,,,,,
acc,1778673006.0,5.0,-0.226562,0.164062,-9.796875,,,,,,,,,,
acc,1778673006.0,5.0,-0.226562,0.164062,-9.761719,,,,,,,,,,
acc,1778673006.0,5.0,-0.226562,0.164062,-9.761719,,,,,,,,,,
acc,1778673006.0,5.0,-0.265625,0.164062,-9.757812,,,,,,,,,,
acc,1778673006.0,5.0,-0.265625,0.164062,-9.800781,,,,,,,,,,
acc,1778673006.0,5.0,-0.265625,0.164062,-9.757812,,,,,,,,,,
acc,1778673006.0,5.0,-0.304688,0.164062,-9.800781,,,,,,,,,,
acc,1778673006.0,5.0,-0.304688,0.164062,-9.800781,,,,,,,,,,
acc,1778673006.0,5.0,-0.304688,0.164062,-9.757812,,,,,,,,,,
acc,1778673006.0,5.0,-0.304688,0.164062,-9.757812,,,,,,,,,,
acc,1778673006.0,5.0,-0.34375,0.164062,-9.796875,,,,,,,,,,
acc,1778673006.0,5.0,-0.34375,0.164062,-9.796875,,,,,,,,,,
acc,1778673006.0,5.0,-0.34375,0.164062,-9.839844,,,,,,,,,,
acc,1778673006.0,5.0,-0.34375,0.164062,-9.796875,,,,,,,,,,
acc,1778673006.0,5.0,-0.382812,0.164062,-9.796875,,,,,,,,,,
acc,1778673007.0,6.0,-0.382812,0.164062,-9.796875,,,,,,,,,,
acc,1778673007.0,6.0,-0.417969,0.164062,-9.796875,,,,,,,,,,
acc,1778673007.0,6.0,-0.417969,0.164062,-9.839844,,,,,,,,,,
acc,1778673007.0,6.0,-0.574219,0.164062,-9.800781,,,,,,,,,,
acc,1778673007.0,6.0,-0.574219,0.128906,-9.796875,,,,,,,,,,
acc,1778673007.0,6.0,-0.613281,0.128906,-9.835938,,,,,,,,,,
acc,1778673007.0,6.0,-0.648438,0.128906,-9.839844,,,,,,,,,,
acc,1778673007.0,6.0,-0.648438,0.164062,-9.800781,,,,,,,,,,
acc,1778673007.0,6.0,-0.6875,0.164062,-9.839844,,,,,,,,,,
acc,1778673007.0,6.0,-0.6875,0.128906,-9.835938,,,,,,,,,,
acc,1778673007.0,6.0,-0.6875,0.164062,-9.839844,,,,,,,,,,
acc,1778673007.0,6.0,-0.6875,0.128906,-9.835938,,,,,,,,,,
acc,1778673007.0,6.0,-0.726562,0.164062,-9.878906,,,,,,,,,,
acc,1778673007.0,6.0,-0.726562,0.164062,-9.839844,,,,,,,,,,
acc,1778673007.0,6.0,-0.726562,0.128906,-9.835938,,,,,,,,,,
acc,1778673007.0,6.0,-0.765625,0.164062,-9.835938,,,,,,,,,,
acc,1778673007.0,6.0,-0.765625,0.164062,-9.835938,,,,,,,,,,
acc,1778673007.0,6.0,-0.804688,0.164062,-9.835938,,,,,,,,,,
acc,1778673007.0,6.0,-0.804688,0.164062,-9.875,,,,,,,,,,
acc,1778673007.0,6.0,-0.804688,0.164062,-9.835938,,,,,,,,,,
acc,1778673007.0,6.0,-0.839844,0.128906,-9.835938,,,,,,,,,,
acc,1778673007.0,6.0,-0.839844,0.128906,-9.835938,,,,,,,,,,
acc,1778673007.0,6.0,-0.878906,0.128906,-9.835938,,,,,,,,,,
acc,1778673007.0,6.0,-0.839844,0.164062,-9.839844,,,,,,,,,,
acc,1778673007.0,6.0,-0.957031,0.164062,-9.796875,,,,,,,,,,
acc,1778673007.0,6.0,-1.03125,0.164062,-9.800781,,,,,,,,,,
acc,1778673007.0,6.0,-1.03125,0.128906,-9.839844,,,,,,,,,,
acc,1778673007.0,6.0,-1.070312,0.128906,-9.800781,,,,,,,,,,
acc,1778673007.0,6.0,-1.070312,0.128906,-9.800781,,,,,,,,,,
acc,1778673007.0,6.0,-1.109375,0.128906,-9.839844,,,,,,,,,,
acc,1778673007.0,6.0,-1.109375,0.128906,-9.796875,,,,,,,,,,
acc,1778673007.0,6.0,-1.109375,0.128906,-9.796875,,,,,,,,,,
acc,1778673007.0,6.0,-1.109375,0.128906,-9.839844,,,,,,,,,,
acc,1778673007.0,6.0,-1.148438,0.128906,-9.839844,,,,,,,,,,
acc,1778673007.0,6.0,-1.148438,0.128906,-9.839844,,,,,,,,,,
acc,1778673007.0,6.0,-1.148438,0.128906,-9.839844,,,,,,,,,,
acc,1778673007.0,6.0,-1.1875,0.128906,-9.800781,,,,,,,,,,
acc,1778673007.0,6.0,-1.1875,0.128906,-9.800781,,,,,,,,,,
acc,1778673007.0,6.0,-1.222656,0.128906,-9.835938,,,,,,,,,,
acc,1778673007.0,6.0,-1.222656,0.128906,-9.800781,,,,,,,,,,
acc,1778673007.0,6.0,-1.261719,0.164062,-9.839844,,,,,,,,,,
acc,1778673007.0,6.0,-1.261719,0.164062,-9.796875,,,,,,,,,,
acc,1778673007.0,6.0,-1.300781,0.164062,-9.800781,,,,,,,,,,
acc,1778673007.0,6.0,-1.300781,0.203125,-9.800781,,,,,,,,,,
acc,1778673007.0,6.0,-1.339844,0.164062,-9.839844,,,,,,,,,,
acc,1778673007.0,6.0,-1.339844,0.164062,-9.839844,,,,,,,,,,
acc,1778673007.0,6.0,-1.53125,0.164062,-9.800781,,,,,,,,,,
acc,1778673007.0,6.0,-1.570312,0.164062,-9.761719,,,,,,,,,,
acc,1778673007.0,6.0,-1.605469,0.128906,-9.800781,,,,,,,,,,
acc,1778673007.0,6.0,-1.605469,0.128906,-9.800781,,,,,,,,,,
acc,1778673007.0,6.0,-1.644531,0.089844,-9.839844,,,,,,,,,,
acc,1778673007.0,6.0,-1.605469,0.128906,-9.800781,,,,,,,,,,
acc,1778673007.0,6.0,-1.644531,0.128906,-9.761719,,,,,,,,,,
acc,1778673007.0,6.0,-1.683594,0.164062,-9.800781,,,,,,,,,,
acc,1778673007.0,6.0,-1.683594,0.164062,-9.800781,,,,,,,,,,
acc,1778673007.0,6.0,-1.722656,0.128906,-9.835938,,,,,,,,,,
acc,1778673007.0,6.0,-1.722656,0.164062,-9.796875,,,,,,,,,,
acc,1778673007.0,6.0,-1.683594,0.128906,-9.839844,,,,,,,,,,
acc,1778673007.0,6.0,-1.683594,0.128906,-9.796875,,,,,,,,,,
acc,1778673007.0,6.0,-1.722656,0.164062,-9.839844,,,,,,,,,,
acc,1778673007.0,6.0,-1.722656,0.164062,-9.796875,,,,,,,,,,
acc,1778673007.0,6.0,-1.800781,0.128906,-9.839844,,,,,,,,,,
acc,1778673007.0,6.0,-1.761719,0.128906,-9.835938,,,,,,,,,,
acc,1778673007.0,6.0,-1.800781,0.128906,-9.839844,,,,,,,,,,
acc,1778673007.0,6.0,-1.800781,0.164062,-9.835938,,,,,,,,,,
acc,1778673007.0,6.0,-1.800781,0.089844,-9.796875,,,,,,,,,,
acc,1778673007.0,6.0,-1.800781,0.164062,-9.835938,,,,,,,,,,
acc,1778673007.0,6.0,-1.800781,0.128906,-9.839844,,,,,,,,,,
acc,1778673007.0,6.0,-1.722656,0.089844,-9.914062,,,,,,,,,,
acc,1778673007.0,6.0,-1.761719,0.128906,-9.835938,,,,,,,,,,
acc,1778673007.0,6.0,-1.800781,0.128906,-9.878906,,,,,,,,,,
acc,1778673007.0,6.0,-1.761719,0.128906,-9.875,,,,,,,,,,
acc,1778673007.0,6.0,-1.722656,0.089844,-9.835938,,,,,,,,,,
acc,1778673007.0,6.0,-1.683594,0.128906,-9.878906,,,,,,,,,,
acc,1778673007.0,6.0,-1.761719,0.164062,-9.839844,,,,,,,,,,
acc,1778673007.0,6.0,-1.761719,0.128906,-9.835938,,,,,,,,,,
acc,1778673007.0,6.0,-1.761719,0.164062,-9.917969,,,,,,,,,,
acc,1778673007.0,6.0,-1.761719,0.128906,-9.800781,,,,,,,,,,
acc,1778673007.0,6.0,-1.761719,0.128906,-9.757812,,,,,,,,,,
acc,1778673007.0,6.0,-1.722656,0.164062,-9.839844,,,,,,,,,,
acc,1778673007.0,6.0,-1.722656,0.164062,-9.796875,,,,,,,,,,
acc,1778673007.0,6.0,-1.722656,0.164062,-9.796875,,,,,,,,,,
acc,1778673007.0,6.0,-1.761719,0.203125,-9.796875,,,,,,,,,,
acc,1778673007.0,6.0,-1.800781,0.203125,-9.800781,,,,,,,,,,
acc,1778673007.0,6.0,-1.761719,0.203125,-9.761719,,,,,,,,,,
acc,1778673007.0,6.0,-1.761719,0.242188,-9.761719,,,,,,,,,,
acc,1778673007.0,6.0,-1.761719,0.28125,-9.761719,,,,,,,,,,
acc,1778673008.0,7.0,-1.761719,0.089844,-9.730469,,,,,,,,,,
acc,1778673008.0,7.0,-1.722656,0.089844,-9.800781,,,,,,,,,,
acc,1778673008.0,7.0,-1.761719,0.164062,-9.796875,,,,,,,,,,
acc,1778673008.0,7.0,-1.761719,0.203125,-9.839844,,,,,,,,,,
acc,1778673008.0,7.0,-1.800781,0.242188,-9.757812,,,,,,,,,,
acc,1778673008.0,7.0,-1.835938,0.203125,-9.800781,,,,,,,,,,
acc,1778673008.0,7.0,-1.875,0.164062,-9.800781,,,,,,,,,,
acc,1778673008.0,7.0,-1.875,0.128906,-9.761719,,,,,,,,,,
acc,1778673008.0,7.0,-1.835938,0.128906,-9.839844,,,,,,,,,,
acc,1778673008.0,7.0,-1.875,0.203125,-9.800781,,,,,,,,,,
acc,1778673008.0,7.0,-1.835938,0.242188,-9.835938,,,,,,,,,,
acc,1778673008.0,7.0,-1.835938,0.203125,-9.800781,,,,,,,,,,
acc,1778673008.0,7.0,-1.835938,0.128906,-9.796875,,,,,,,,,,
acc,1778673008.0,7.0,-1.835938,0.164062,-9.835938,,,,,,,,,,
acc,1778673008.0,7.0,-1.875,0.203125,-9.835938,,,,,,,,,,
acc,1778673008.0,7.0,-1.835938,0.128906,-9.796875,,,,,,,,,,
acc,1778673008.0,7.0,-1.835938,0.164062,-9.800781,,,,,,,,,,
acc,1778673008.0,7.0,-1.835938,0.164062,-9.835938,,,,,,,,,,
acc,1778673008.0,7.0,-1.914062,0.203125,-9.835938,,,,,,,,,,
acc,1778673008.0,7.0,-1.953125,0.28125,-9.835938,,,,,,,,,,
acc,1778673008.0,7.0,-1.953125,0.320312,-9.878906,,,,,,,,,,
acc,1778673008.0,7.0,-1.914062,0.28125,-9.953125,,,,,,,,,,
acc,1778673008.0,7.0,-1.914062,0.28125,-9.835938,,,,,,,,,,
acc,1778673008.0,7.0,-1.914062,0.203125,-9.875,,,,,,,,,,
acc,1778673008.0,7.0,-1.914062,0.164062,-9.835938,,,,,,,,,,
acc,1778673008.0,7.0,-1.953125,0.242188,-9.835938,,,,,,,,,,
acc,1778673008.0,7.0,-1.953125,0.320312,-9.878906,,,,,,,,,,
acc,1778673008.0,7.0,-1.953125,0.28125,-9.835938,,,,,,,,,,
acc,1778673008.0,7.0,-1.992188,0.242188,-9.875,,,,,,,,,,
acc,1778673008.0,7.0,-1.914062,0.28125,-9.875,,,,,,,,,,
acc,1778673008.0,7.0,-1.953125,0.164062,-9.800781,,,,,,,,,,
acc,1778673008.0,7.0,-2.027344,0.128906,-9.839844,,,,,,,,,,
acc,1778673008.0,7.0,-2.027344,0.128906,-9.878906,,,,,,,,,,
acc,1778673008.0,7.0,-1.992188,0.089844,-9.839844,,,,,,,,,,
acc,1778673008.0,7.0,-1.992188,0.089844,-9.796875,,,,,,,,,,
acc,1778673008.0,7.0,-1.992188,0.164062,-9.835938,,,,,,,,,,
acc,1778673008.0,7.0,-2.027344,0.242188,-9.730469,,,,,,,,,,
acc,1778673008.0,7.0,-2.027344,0.28125,-9.800781,,,,,,,,,,
acc,1778673008.0,7.0,-1.992188,0.242188,-9.730469,,,,,,,,,,
acc,1778673008.0,7.0,-2.066406,0.164062,-9.796875,,,,,,,,,,
acc,1778673008.0,7.0,-2.027344,0.128906,-9.796875,,,,,,,,,,
acc,1778673008.0,7.0,-2.066406,0.164062,-9.796875,,,,,,,,,,
acc,1778673008.0,7.0,-2.066406,0.203125,-9.796875,,,,,,,,,,
acc,1778673008.0,7.0,-2.105469,0.203125,-9.796875,,,,,,,,,,
acc,1778673008.0,7.0,-2.066406,0.203125,-9.839844,,,,,,,,,,
acc,1778673008.0,7.0,-2.144531,0.242188,-9.757812,,,,,,,,,,
acc,1778673008.0,7.0,-2.144531,0.203125,-9.800781,,,,,,,,,,
acc,1778673008.0,7.0,-2.183594,0.203125,-9.800781,,,,,,,,,,
acc,1778673008.0,7.0,-2.144531,0.164062,-9.730469,,,,,,,,,,
acc,1778673008.0,7.0,-2.144531,0.203125,-9.835938,,,,,,,,,,
acc,1778673008.0,7.0,-2.144531,0.164062,-9.800781,,,,,,,,,,
acc,1778673008.0,7.0,-2.144531,0.242188,-9.835938,,,,,,,,,,
acc,1778673008.0,7.0,-2.144531,0.28125,-9.835938,,,,,,,,,,
acc,1778673008.0,7.0,-2.144531,0.203125,-9.835938,,,,,,,,,,
acc,1778673008.0,7.0,-2.183594,0.203125,-9.835938,,,,,,,,,,
acc,1778673008.0,7.0,-2.105469,0.242188,-9.878906,,,,,,,,,,
acc,1778673008.0,7.0,-2.105469,0.242188,-9.761719,,,,,,,,,,
acc,1778673008.0,7.0,-2.105469,0.28125,-9.917969,,,,,,,,,,
acc,1778673008.0,7.0,-2.144531,0.320312,-9.878906,,,,,,,,,,
acc,1778673008.0,7.0,-2.144531,0.320312,-9.878906,,,,,,,,,,
acc,1778673008.0,7.0,-2.105469,0.28125,-9.878906,,,,,,,,,,
acc,1778673008.0,7.0,-2.027344,0.242188,-9.835938,,,,,,,,,,
acc,1778673008.0,7.0,-2.144531,0.203125,-9.835938,,,,,,,,,,
acc,1778673008.0,7.0,-2.257812,0.28125,-9.835938,,,,,,,,,,
acc,1778673008.0,7.0,-2.183594,0.472656,-9.796875,,,,,,,,,,
acc,1778673008.0,7.0,-2.21875,0.320312,-9.796875,,,,,,,,,,
acc,1778673008.0,7.0,-2.257812,0.320312,-9.726562,,,,,,,,,,
acc,1778673008.0,7.0,-2.257812,0.511719,-9.878906,,,,,,,,,,
acc,1778673008.0,7.0,-2.21875,0.433594,-9.757812,,,,,,,,,,
acc,1778673008.0,7.0,-2.21875,0.320312,-9.796875,,,,,,,,,,
acc,1778673008.0,7.0,-2.183594,0.355469,-9.796875,,,,,,,,,,
acc,1778673008.0,7.0,-2.183594,0.355469,-9.796875,,,,,,,,,,
acc,1778673008.0,7.0,-2.21875,0.394531,-9.800781,,,,,,,,,,
acc,1778673008.0,7.0,-2.257812,0.394531,-9.757812,,,,,,,,,,
acc,1778673008.0,7.0,-2.183594,0.394531,-9.800781,,,,,,,,,,
acc,1778673008.0,7.0,-2.105469,0.242188,-9.796875,,,,,,,,,,
acc,1778673008.0,7.0,-2.144531,0.28125,-9.730469,,,,,,,,,,
acc,1778673008.0,7.0,-2.257812,0.355469,-9.6875,,,,,,,,,,
acc,1778673008.0,7.0,-2.296875,0.394531,-9.796875,,,,,,,,,,
acc,1778673008.0,7.0,-2.257812,0.511719,-9.726562,,,,,,,,,,
acc,1778673008.0,7.0,-2.144531,0.511719,-9.761719,,,,,,,,,,
acc,1778673008.0,7.0,-2.21875,0.550781,-9.730469,,,,,,,,,,
acc,1778673008.0,7.0,-2.335938,0.511719,-9.878906,,,,,,,,,,
acc,1778673008.0,7.0,-2.21875,0.394531,-9.757812,,,,,,,,,,
acc,1778673008.0,7.0,-2.21875,0.472656,-9.726562,,,,,,,,,,
acc,1778673008.0,7.0,-2.410156,0.394531,-9.914062,,,,,,,,,,
acc,1778673008.0,7.0,-2.296875,0.320312,-9.953125,,,,,,,,,,
acc,1778673008.0,7.0,-2.296875,0.355469,-9.875,,,,,,,,,,
acc,1778673008.0,7.0,-2.410156,0.355469,-9.878906,,,,,,,,,,
acc,1778673008.0,7.0,-2.410156,0.320312,-9.996094,,,,,,,,,,
acc,1778673008.0,7.0,-2.375,0.433594,-9.914062,,,,,,,,,,
acc,1778673008.0,7.0,-2.410156,0.511719,-10.035156,,,,,,,,,,
acc,1778673008.0,7.0,-2.375,0.511719,-9.996094,,,,,,,,,,
acc,1778673008.0,7.0,-2.375,0.511719,-9.957031,,,,,,,,,,
acc,1778673008.0,7.0,-2.375,0.394531,-9.953125,,,,,,,,,,
acc,1778673008.0,7.0,-2.335938,0.394531,-9.914062,,,,,,,,,,
acc,1778673009.0,8.0,-2.375,0.433594,-9.953125,,,,,,,,,,
acc,1778673009.0,8.0,-2.410156,0.394531,-9.953125,,,,,,,,,,
acc,1778673009.0,8.0,-2.296875,0.394531,-9.917969,,,,,,,,,,
acc,1778673009.0,8.0,-2.296875,0.433594,-9.878906,,,,,,,,,,
acc,1778673009.0,8.0,-2.410156,0.394531,-9.914062,,,,,,,,,,
acc,1778673009.0,8.0,-2.488281,0.433594,-9.914062,,,,,,,,,,
acc,1778673009.0,8.0,-2.488281,0.472656,-9.917969,,,,,,,,,,
acc,1778673009.0,8.0,-2.410156,0.777344,-9.835938,,,,,,,,,,
acc,1778673009.0,8.0,-2.375,0.703125,-9.757812,,,,,,,,,,
acc,1778673009.0,8.0,-2.296875,0.550781,-9.839844,,,,,,,,,,
acc,1778673009.0,8.0,-2.375,0.550781,-9.730469,,,,,,,,,,
acc,1778673009.0,8.0,-2.335938,0.511719,-9.761719,,,,,,,,,,
acc,1778673009.0,8.0,-2.335938,0.472656,-9.839844,,,,,,,,,,
acc,1778673009.0,8.0,-2.296875,0.511719,-9.691406,,,,,,,,,,
acc,1778673009.0,8.0,-2.375,0.472656,-9.796875,,,,,,,,,,
acc,1778673009.0,8.0,-2.335938,0.550781,-9.800781,,,,,,,,,,
acc,1778673009.0,8.0,-2.257812,0.550781,-9.648438,,,,,,,,,,
acc,1778673009.0,8.0,-2.257812,0.703125,-9.730469,,,,,,,,,,
acc,1778673009.0,8.0,-2.335938,0.703125,-9.691406,,,,,,,,,,
acc,1778673009.0,8.0,-2.375,0.664062,-9.875,,,,,,,,,,
acc,1778673009.0,8.0,-2.449219,0.742188,-9.796875,,,,,,,,,,
acc,1778673009.0,8.0,-2.375,0.511719,-9.839844,,,,,,,,,,
acc,1778673009.0,8.0,-2.296875,0.550781,-9.839844,,,,,,,,,,
acc,1778673009.0,8.0,-2.183594,0.664062,-9.835938,,,,,,,,,,
acc,1778673009.0,8.0,-2.21875,0.625,-9.691406,,,,,,,,,,
acc,1778673009.0,8.0,-2.335938,0.511719,-9.839844,,,,,,,,,,
acc,1778673009.0,8.0,-2.335938,0.472656,-9.839844,,,,,,,,,,
acc,1778673009.0,8.0,-2.375,0.472656,-9.878906,,,,,,,,,,
acc,1778673009.0,8.0,-2.21875,0.394531,-9.875,,,,,,,,,,
acc,1778673009.0,8.0,-2.144531,0.433594,-9.875,,,,,,,,,,
acc,1778673009.0,8.0,-2.21875,0.28125,-9.992188,,,,,,,,,,
acc,1778673009.0,8.0,-2.410156,0.585938,-9.875,,,,,,,,,,
acc,1778673009.0,8.0,-2.410156,0.777344,-9.875,,,,,,,,,,
acc,1778673009.0,8.0,-2.410156,0.894531,-9.875,,,,,,,,,,
acc,1778673009.0,8.0,-2.375,0.96875,-9.800781,,,,,,,,,,
acc,1778673009.0,8.0,-2.410156,1.160156,-9.835938,,,,,,,,,,
acc,1778673009.0,8.0,-2.410156,1.085938,-9.914062,,,,,,,,,,
acc,1778673009.0,8.0,-2.449219,1.125,-9.839844,,,,,,,,,,
acc,1778673009.0,8.0,-2.488281,1.046875,-9.761719,,,,,,,,,,
acc,1778673009.0,8.0,-2.449219,1.007812,-9.878906,,,,,,,,,,
acc,1778673009.0,8.0,-2.410156,0.816406,-9.726562,,,,,,,,,,
acc,1778673009.0,8.0,-2.449219,0.816406,-9.757812,,,,,,,,,,
acc,1778673009.0,8.0,-2.566406,0.855469,-9.757812,,,,,,,,,,
acc,1778673009.0,8.0,-2.566406,0.625,-9.796875,,,,,,,,,,
acc,1778673009.0,8.0,-2.488281,0.664062,-9.648438,,,,,,,,,,
acc,1778673009.0,8.0,-2.449219,0.664062,-9.796875,,,,,,,,,,
acc,1778673009.0,8.0,-2.488281,0.472656,-9.726562,,,,,,,,,,
acc,1778673009.0,8.0,-2.488281,0.433594,-9.691406,,,,,,,,,,
acc,1778673009.0,8.0,-2.449219,0.703125,-9.878906,,,,,,,,,,
acc,1778673009.0,8.0,-2.527344,0.816406,-9.726562,,,,,,,,,,
acc,1778673009.0,8.0,-2.527344,0.855469,-9.878906,,,,,,,,,,
acc,1778673009.0,8.0,-2.527344,0.96875,-9.757812,,,,,,,,,,
acc,1778673009.0,8.0,-2.601562,1.085938,-9.757812,,,,,,,,,,
acc,1778673009.0,8.0,-2.410156,1.125,-9.992188,,,,,,,,,,
acc,1778673009.0,8.0,-2.527344,0.933594,-9.800781,,,,,,,,,,
acc,1778673009.0,8.0,-2.527344,0.742188,-10.109375,,,,,,,,,,
acc,1778673009.0,8.0,-2.410156,0.703125,-9.875,,,,,,,,,,
acc,1778673009.0,8.0,-2.410156,0.855469,-9.917969,,,,,,,,,,
acc,1778673009.0,8.0,-2.449219,0.894531,-9.917969,,,,,,,,,,
acc,1778673009.0,8.0,-2.449219,0.816406,-9.953125,,,,,,,,,,
acc,1778673009.0,8.0,-2.449219,0.933594,-9.839844,,,,,,,,,,
acc,1778673009.0,8.0,-2.488281,0.894531,-9.875,,,,,,,,,,
acc,1778673009.0,8.0,-2.488281,0.96875,-9.800781,,,,,,,,,,
acc,1778673009.0,8.0,-2.488281,1.007812,-9.875,,,,,,,,,,
acc,1778673009.0,8.0,-2.410156,1.007812,-9.800781,,,,,,,,,,
acc,1778673009.0,8.0,-2.375,1.046875,-9.761719,,,,,,,,,,
acc,1778673009.0,8.0,-2.335938,0.933594,-9.835938,,,,,,,,,,
acc,1778673009.0,8.0,-2.257812,0.96875,-9.648438,,,,,,,,,,
acc,1778673009.0,8.0,-2.257812,0.933594,-9.730469,,,,,,,,,,
acc,1778673009.0,8.0,-2.375,0.742188,-9.835938,,,,,,,,,,
acc,1778673009.0,8.0,-2.257812,0.585938,-9.648438,,,,,,,,,,
acc,1778673009.0,8.0,-2.21875,0.703125,-9.691406,,,,,,,,,,
acc,1778673009.0,8.0,-2.257812,0.816406,-9.726562,,,,,,,,,,
acc,1778673009.0,8.0,-2.21875,0.777344,-9.691406,,,,,,,,,,
acc,1778673009.0,8.0,-2.257812,0.742188,-9.730469,,,,,,,,,,
acc,1778673009.0,8.0,-2.257812,0.855469,-9.761719,,,,,,,,,,
acc,1778673009.0,8.0,-2.257812,1.125,-9.730469,,,,,,,,,,
acc,1778673009.0,8.0,-2.335938,1.277344,-9.757812,,,,,,,,,,
acc,1778673009.0,8.0,-2.21875,1.277344,-9.691406,,,,,,,,,,
acc,1778673009.0,8.0,-2.296875,1.238281,-9.761719,,,,,,,,,,
acc,1778673009.0,8.0,-2.296875,1.316406,-9.757812,,,,,,,,,,
acc,1778673009.0,8.0,-2.410156,1.199219,-9.726562,,,,,,,,,,
acc,1778673009.0,8.0,-2.410156,1.085938,-9.757812,,,,,,,,,,
acc,1778673009.0,8.0,-2.375,0.96875,-9.835938,,,,,,,,,,
acc,1778673009.0,8.0,-2.21875,0.933594,-9.835938,,,,,,,,,,
acc,1778673009.0,8.0,-2.335938,1.007812,-9.730469,,,,,,,,,,
acc,1778673009.0,8.0,-2.449219,1.160156,-9.917969,,,,,,,,,,
acc,1778673009.0,8.0,-2.410156,1.238281,-9.757812,,,,,,,,,,
acc,1778673010.0,9.0,-2.257812,1.085938,-9.757812,,,,,,,,,,
acc,1778673010.0,9.0,-2.296875,1.199219,-9.992188,,,,,,,,,,
acc,1778673010.0,9.0,-2.375,1.046875,-9.726562,,,,,,,,,,
acc,1778673010.0,9.0,-2.488281,1.160156,-9.992188,,,,,,,,,,
acc,1778673010.0,9.0,-2.488281,1.238281,-9.757812,,,,,,,,,,
acc,1778673010.0,9.0,-2.410156,0.96875,-9.875,,,,,,,,,,
acc,1778673010.0,9.0,-2.375,0.96875,-9.875,,,,,,,,,,
acc,1778673010.0,9.0,-2.375,0.96875,-9.800781,,,,,,,,,,
acc,1778673010.0,9.0,-2.527344,1.046875,-9.878906,,,,,,,,,,
acc,1778673010.0,9.0,-2.566406,1.046875,-10.03125,,,,,,,,,,
acc,1778673010.0,9.0,-2.488281,0.933594,-9.992188,,,,,,,,,,
acc,1778673010.0,9.0,-2.449219,0.894531,-10.113281,,,,,,,,,,
acc,1778673010.0,9.0,-2.375,0.855469,-10.070312,,,,,,,,,,
acc,1778673010.0,9.0,-2.21875,1.160156,-9.992188,,,,,,,,,,
acc,1778673010.0,9.0,-2.296875,1.199219,-10.074219,,,,,,,,,,
acc,1778673010.0,9.0,-2.296875,1.160156,-10.113281,,,,,,,,,,
acc,1778673010.0,9.0,-2.257812,1.277344,-10.074219,,,,,,,,,,
acc,1778673010.0,9.0,-2.21875,1.351562,-10.21875,,,,,,,,,,
acc,1778673010.0,9.0,-2.144531,1.390625,-9.996094,,,,,,,,,,
acc,1778673010.0,9.0,-2.105469,1.316406,-10.074219,,,,,,,,,,
acc,1778673010.0,9.0,-2.21875,1.390625,-9.996094,,,,,,,,,,
acc,1778673010.0,9.0,-2.335938,1.351562,-9.992188,,,,,,,,,,
acc,1778673010.0,9.0,-2.257812,1.316406,-10.070312,,,,,,,,,,
acc,1778673010.0,9.0,-2.105469,1.199219,-9.953125,,,,,,,,,,
acc,1778673010.0,9.0,-1.992188,1.160156,-9.992188,,,,,,,,,,
acc,1778673010.0,9.0,-2.066406,1.125,-9.6875,,,,,,,,,,
acc,1778673010.0,9.0,-2.183594,1.199219,-9.996094,,,,,,,,,,
acc,1778673010.0,9.0,-2.183594,1.277344,-9.691406,,,,,,,,,,
acc,1778673010.0,9.0,-2.144531,1.277344,-10.03125,,,,,,,,,,
acc,1778673010.0,9.0,-2.027344,1.390625,-9.878906,,,,,,,,,,
acc,1778673010.0,9.0,-2.066406,1.316406,-9.757812,,,,,,,,,,
acc,1778673010.0,9.0,-2.066406,1.160156,-9.878906,,,,,,,,,,
acc,1778673010.0,9.0,-2.027344,0.96875,-9.53125,,,,,,,,,,
acc,1778673010.0,9.0,-2.027344,1.007812,-9.835938,,,,,,,,,,
acc,1778673010.0,9.0,-1.992188,1.125,-9.691406,,,,,,,,,,
acc,1778673010.0,9.0,-1.992188,1.277344,-9.691406,,,,,,,,,,
acc,1778673010.0,9.0,-1.992188,1.277344,-9.730469,,,,,,,,,,
acc,1778673010.0,9.0,-1.875,1.085938,-9.648438,,,,,,,,,,
acc,1778673010.0,9.0,-1.914062,1.199219,-9.761719,,,,,,,,,,
acc,1778673010.0,9.0,-1.992188,1.125,-9.757812,,,,,,,,,,
acc,1778673010.0,9.0,-2.066406,1.277344,-9.6875,,,,,,,,,,
acc,1778673010.0,9.0,-2.066406,1.390625,-9.800781,,,,,,,,,,
acc,1778673010.0,9.0,-2.027344,1.316406,-9.726562,,,,,,,,,,
acc,1778673010.0,9.0,-1.992188,1.390625,-9.6875,,,,,,,,,,
acc,1778673010.0,9.0,-2.144531,1.429688,-9.796875,,,,,,,,,,
acc,1778673010.0,9.0,-2.296875,1.390625,-9.691406,,,,,,,,,,
acc,1778673010.0,9.0,-2.144531,1.390625,-9.761719,,,,,,,,,,
acc,1778673010.0,9.0,-2.066406,1.390625,-9.53125,,,,,,,,,,
acc,1778673010.0,9.0,-2.027344,1.429688,-9.652344,,,,,,,,,,
acc,1778673010.0,9.0,-2.183594,1.429688,-9.6875,,,,,,,,,,
acc,1778673010.0,9.0,-2.105469,1.429688,-9.757812,,,,,,,,,,
acc,1778673010.0,9.0,-2.144531,1.390625,-9.613281,,,,,,,,,,
acc,1778673010.0,9.0,-2.144531,1.316406,-9.761719,,,,,,,,,,
acc,1778673010.0,9.0,-2.144531,1.429688,-9.726562,,,,,,,,,,
acc,1778673010.0,9.0,-2.183594,1.238281,-9.574219,,,,,,,,,,
acc,1778673010.0,9.0,-2.144531,1.160156,-9.875,,,,,,,,,,
acc,1778673010.0,9.0,-2.105469,1.046875,-9.609375,,,,,,,,,,
acc,1778673010.0,9.0,-2.027344,1.277344,-9.992188,,,,,,,,,,
acc,1778673010.0,9.0,-2.183594,1.351562,-9.730469,,,,,,,,,,
acc,1778673010.0,9.0,-2.257812,1.316406,-9.761719,,,,,,,,,,
acc,1778673010.0,9.0,-2.21875,1.351562,-9.835938,,,,,,,,,,
acc,1778673010.0,9.0,-2.105469,1.316406,-9.730469,,,,,,,,,,
acc,1778673010.0,9.0,-1.953125,1.277344,-9.691406,,,,,,,,,,
acc,1778673010.0,9.0,-2.105469,1.390625,-9.691406,,,,,,,,,,
acc,1778673010.0,9.0,-2.335938,1.429688,-9.957031,,,,,,,,,,
acc,1778673010.0,9.0,-2.21875,1.46875,-9.730469,,,,,,,,,,
acc,1778673010.0,9.0,-2.183594,1.582031,-9.914062,,,,,,,,,,
acc,1778673010.0,9.0,-2.296875,1.542969,-9.917969,,,,,,,,,,
acc,1778673010.0,9.0,-2.21875,1.46875,-9.992188,,,,,,,,,,
acc,1778673010.0,9.0,-2.144531,1.507812,-10.074219,,,,,,,,,,
acc,1778673010.0,9.0,-2.066406,1.390625,-9.835938,,,,,,,,,,
acc,1778673010.0,9.0,-2.027344,1.429688,-9.839844,,,,,,,,,,
acc,1778673010.0,9.0,-2.066406,1.542969,-10.070312,,,,,,,,,,
acc,1778673010.0,9.0,-2.066406,1.582031,-9.796875,,,,,,,,,,
acc,1778673010.0,9.0,-1.992188,1.429688,-10.070312,,,,,,,,,,
acc,1778673010.0,9.0,-1.914062,1.429688,-9.878906,,,,,,,,,,
acc,1778673010.0,9.0,-1.953125,1.46875,-9.914062,,,,,,,,,,
acc,1778673010.0,9.0,-2.027344,1.429688,-9.917969,,,,,,,,,,
acc,1778673010.0,9.0,-1.992188,1.390625,-9.996094,,,,,,,,,,
acc,1778673010.0,9.0,-2.066406,1.429688,-9.992188,,,,,,,,,,
acc,1778673010.0,9.0,-2.066406,1.507812,-10.152344,,,,,,,,,,
acc,1778673010.0,9.0,-2.144531,1.507812,-10.03125,,,,,,,,,,
acc,1778673010.0,9.0,-2.21875,1.390625,-10.035156,,,,,,,,,,
acc,1778673010.0,9.0,-2.296875,1.390625,-10.03125,,,,,,,,,,
acc,1778673010.0,9.0,-2.21875,1.429688,-10.035156,,,,,,,,,,
acc,1778673010.0,9.0,-2.066406,1.582031,-9.839844,,,,,,,,,,
acc,1778673010.0,9.0,-2.066406,1.582031,-9.917969,,,,,,,,,,
acc,1778673010.0,9.0,-2.105469,1.890625,-9.953125,,,,,,,,,,
acc,1778673010.0,9.0,-2.183594,1.8125,-9.800781,,,,,,,,,,
acc,1778673010.0,9.0,-2.183594,1.890625,-10.070312,,,,,,,,,,
acc,1778673010.0,9.0,-2.144531,2.003906,-9.691406,,,,,,,,,,
acc,1778673010.0,9.0,-2.144531,1.890625,-9.652344,,,,,,,,,,
acc,1778673010.0,9.0,-2.144531,1.738281,-9.757812,,,,,,,,,,
acc,1778673010.0,9.0,-2.027344,1.621094,-9.691406,,,,,,,,,,
acc,1778673010.0,9.0,-2.105469,1.964844,-9.652344,,,,,,,,,,
acc,1778673010.0,9.0,-2.066406,1.773438,-9.757812,,,,,,,,,,
acc,1778673010.0,9.0,-1.992188,1.507812,-9.835938,,,,,,,,,,
acc,1778673010.0,9.0,-2.105469,1.429688,-9.574219,,,,,,,,,,
acc,1778673010.0,9.0,-2.183594,1.542969,-9.800781,,,,,,,,,,
acc,1778673010.0,9.0,-2.21875,1.660156,-9.875,,,,,,,,,,
acc,1778673010.0,9.0,-2.066406,1.46875,-9.570312,,,,,,,,,,
acc,1778673010.0,9.0,-2.105469,1.507812,-10.035156,,,,,,,,,,
acc,1778673010.0,9.0,-2.105469,1.46875,-9.613281,,,,,,,,,,
acc,1778673010.0,9.0,-2.144531,1.429688,-9.878906,,,,,,,,,,
acc,1778673010.0,9.0,-2.027344,1.429688,-9.796875,,,,,,,,,,
acc,1778673010.0,9.0,-1.953125,1.429688,-9.570312,,,,,,,,,,
acc,1778673010.0,9.0,-2.066406,1.429688,-9.757812,,,,,,,,,,
acc,1778673010.0,9.0,-2.105469,1.582031,-9.613281,,,,,,,,,,
acc,1778673010.0,9.0,-2.183594,1.507812,-9.53125,,,,,,,,,,
acc,1778673010.0,9.0,-2.066406,1.621094,-9.839844,,,,,,,,,,
acc,1778673010.0,9.0,-2.027344,1.773438,-9.6875,,,,,,,,,,
acc,1778673010.0,9.0,-2.144531,1.660156,-9.691406,,,,,,,,,,
acc,1778673010.0,9.0,-2.144531,1.851562,-9.953125,,,,,,,,,,
acc,1778673010.0,9.0,-2.027344,1.738281,-9.730469,,,,,,,,,,
acc,1778673010.0,9.0,-2.066406,1.851562,-9.761719,,,,,,,,,,
acc,1778673010.0,9.0,-2.027344,1.964844,-9.875,,,,,,,,,,
acc,1778673010.0,9.0,-1.953125,2.003906,-9.835938,,,,,,,,,,
acc,1778673010.0,9.0,-1.953125,1.964844,-9.730469,,,,,,,,,,
acc,1778673010.0,9.0,-1.992188,1.929688,-10.070312,,,,,,,,,,
acc,1778673010.0,9.0,-1.992188,1.621094,-9.730469,,,,,,,,,,
acc,1778673010.0,9.0,-1.875,1.621094,-10.074219,,,,,,,,,,
acc,1778673010.0,9.0,-1.835938,1.429688,-9.878906,,,,,,,,,,
acc,1778673010.0,9.0,-1.761719,1.390625,-9.800781,,,,,,,,,,
acc,1778673010.0,9.0,-1.914062,1.507812,-10.03125,,,,,,,,,,
acc,1778673010.0,9.0,-1.875,1.429688,-9.6875,,,,,,,,,,
acc,1778673010.0,9.0,-1.835938,1.390625,-9.957031,,,,,,,,,,
acc,1778673010.0,9.0,-1.722656,1.660156,-9.957031,,,,,,,,,,
acc,1778673010.0,9.0,-1.800781,1.851562,-9.953125,,,,,,,,,,
acc,1778673011.0,10.0,-2.027344,1.507812,-9.835938,,,,,,,,,,
acc,1778673011.0,10.0,-1.953125,1.390625,-10.070312,,,,,,,,,,
acc,1778673011.0,10.0,-1.800781,1.429688,-10.113281,,,,,,,,,,
acc,1778673011.0,10.0,-1.800781,1.507812,-10.109375,,,,,,,,,,
acc,1778673011.0,10.0,-1.835938,1.582031,-10.148438,,,,,,,,,,
acc,1778673011.0,10.0,-1.953125,1.46875,-10.03125,,,,,,,,,,
acc,1778673011.0,10.0,-1.914062,1.621094,-9.992188,,,,,,,,,,
acc,1778673011.0,10.0,-1.914062,1.8125,-9.992188,,,,,,,,,,
acc,1778673011.0,10.0,-2.105469,1.8125,-10.070312,,,,,,,,,,
acc,1778673011.0,10.0,-2.144531,1.738281,-9.914062,,,,,,,,,,
acc,1778673011.0,10.0,-2.027344,1.964844,-9.875,,,,,,,,,,
acc,1778673011.0,10.0,-1.875,2.003906,-9.914062,,,,,,,,,,
acc,1778673011.0,10.0,-1.914062,2.15625,-9.796875,,,,,,,,,,
acc,1778673011.0,10.0,-1.992188,2.273438,-9.726562,,,,,,,,,,
acc,1778673011.0,10.0,-1.992188,1.699219,-9.917969,,,,,,,,,,
acc,1778673011.0,10.0,-1.875,1.542969,-9.609375,,,,,,,,,,
acc,1778673011.0,10.0,-1.953125,1.851562,-9.730469,,,,,,,,,,
acc,1778673011.0,10.0,-2.027344,1.699219,-9.726562,,,,,,,,,,
acc,1778673011.0,10.0,-2.105469,1.964844,-9.6875,,,,,,,,,,
acc,1778673011.0,10.0,-2.105469,2.042969,-9.570312,,,,,,,,,,
acc,1778673011.0,10.0,-1.992188,1.964844,-9.730469,,,,,,,,,,
acc,1778673011.0,10.0,-1.992188,1.964844,-9.648438,,,,,,,,,,
acc,1778673011.0,10.0,-2.144531,2.003906,-9.609375,,,,,,,,,,
acc,1778673011.0,10.0,-2.21875,2.234375,-9.796875,,,,,,,,,,
acc,1778673011.0,10.0,-2.105469,2.386719,-9.613281,,,,,,,,,,
acc,1778673011.0,10.0,-2.105469,2.347656,-9.535156,,,,,,,,,,
acc,1778673011.0,10.0,-2.144531,2.386719,-9.691406,,,,,,,,,,
acc,1778673011.0,10.0,-2.296875,2.503906,-9.496094,,,,,,,,,,
acc,1778673011.0,10.0,-2.296875,2.539062,-9.835938,,,,,,,,,,
acc,1778673011.0,10.0,-2.183594,2.3125,-9.609375,,,,,,,,,,
acc,1778673011.0,10.0,-2.027344,2.386719,-9.648438,,,,,,,,,,
acc,1778673011.0,10.0,-2.066406,2.3125,-9.496094,,,,,,,,,,
acc,1778673011.0,10.0,-2.066406,2.195312,-9.308594,,,,,,,,,,
acc,1778673011.0,10.0,-2.027344,2.347656,-9.574219,,,,,,,,,,
acc,1778673011.0,10.0,-2.027344,2.234375,-9.457031,,,,,,,,,,
acc,1778673011.0,10.0,-1.992188,2.425781,-9.6875,,,,,,,,,,
acc,1778673011.0,10.0,-1.992188,2.082031,-9.691406,,,,,,,,,,
acc,1778673011.0,10.0,-1.914062,1.890625,-9.878906,,,,,,,,,,
acc,1778673011.0,10.0,-1.875,2.425781,-9.917969,,,,,,,,,,
acc,1778673011.0,10.0,-1.992188,2.003906,-9.691406,,,,,,,,,,
acc,1778673011.0,10.0,-1.914062,2.195312,-10.03125,,,,,,,,,,
acc,1778673011.0,10.0,-1.992188,2.15625,-9.726562,,,,,,,,,,
acc,1778673011.0,10.0,-2.066406,2.082031,-9.917969,,,,,,,,,,
acc,1778673011.0,10.0,-2.027344,1.964844,-10.109375,,,,,,,,,,
acc,1778673011.0,10.0,-1.875,1.738281,-9.875,,,,,,,,,,
acc,1778673011.0,10.0,-1.800781,1.773438,-10.070312,,,,,,,,,,
acc,1778673011.0,10.0,-1.953125,1.851562,-10.03125,,,,,,,,,,
acc,1778673011.0,10.0,-2.027344,1.699219,-10.070312,,,,,,,,,,
acc,1778673011.0,10.0,-1.835938,1.738281,-10.074219,,,,,,,,,,
acc,1778673011.0,10.0,-1.835938,1.851562,-9.875,,,,,,,,,,
acc,1778673011.0,10.0,-1.914062,1.851562,-10.03125,,,,,,,,,,
acc,1778673011.0,10.0,-1.953125,1.738281,-10.03125,,,,,,,,,,
acc,1778673011.0,10.0,-1.992188,2.003906,-9.992188,,,,,,,,,,
acc,1778673011.0,10.0,-2.105469,1.738281,-10.261719,,,,,,,,,,
acc,1778673011.0,10.0,-1.835938,1.542969,-10.074219,,,,,,,,,,
acc,1778673011.0,10.0,-1.953125,1.46875,-10.148438,,,,,,,,,,
acc,1778673011.0,10.0,-2.027344,1.507812,-9.914062,,,,,,,,,,
acc,1778673011.0,10.0,-1.992188,1.8125,-9.800781,,,,,,,,,,
acc,1778673011.0,10.0,-1.992188,2.273438,-10.035156,,,,,,,,,,
acc,1778673011.0,10.0,-2.027344,2.3125,-9.953125,,,,,,,,,,
acc,1778673011.0,10.0,-2.105469,2.003906,-9.957031,,,,,,,,,,
acc,1778673011.0,10.0,-1.953125,1.8125,-10.109375,,,,,,,,,,
acc,1778673011.0,10.0,-1.875,1.773438,-9.761719,,,,,,,,,,
acc,1778673011.0,10.0,-1.800781,1.773438,-10.261719,,,,,,,,,,
acc,1778673011.0,10.0,-1.722656,1.660156,-9.957031,,,,,,,,,,
acc,1778673011.0,10.0,-1.914062,1.699219,-10.035156,,,,,,,,,,
acc,1778673011.0,10.0,-1.992188,2.273438,-10.152344,,,,,,,,,,
acc,1778673011.0,10.0,-1.875,2.121094,-9.800781,,,,,,,,,,
acc,1778673011.0,10.0,-1.683594,1.890625,-10.070312,,,,,,,,,,
acc,1778673011.0,10.0,-1.605469,2.234375,-9.691406,,,,,,,,,,
acc,1778673011.0,10.0,-1.761719,1.851562,-9.878906,,,,,,,,,,
acc,1778673011.0,10.0,-1.800781,1.964844,-9.875,,,,,,,,,,
acc,1778673011.0,10.0,-1.605469,1.738281,-9.417969,,,,,,,,,,
acc,1778673011.0,10.0,-1.722656,2.003906,-10.222656,,,,,,,,,,
acc,1778673011.0,10.0,-1.683594,2.003906,-9.453125,,,,,,,,,,
acc,1778673011.0,10.0,-1.800781,2.386719,-9.609375,,,,,,,,,,
acc,1778673011.0,10.0,-1.835938,2.539062,-9.761719,,,,,,,,,,
acc,1778673011.0,10.0,-1.683594,2.386719,-9.414062,,,,,,,,,,
acc,1778673011.0,10.0,-1.761719,2.65625,-9.691406,,,,,,,,,,
acc,1778673011.0,10.0,-1.914062,2.617188,-9.6875,,,,,,,,,,
acc,1778673011.0,10.0,-1.992188,2.386719,-9.492188,,,,,,,,,,
acc,1778673011.0,10.0,-1.835938,2.082031,-9.914062,,,,,,,,,,
acc,1778673011.0,10.0,-1.835938,2.121094,-9.453125,,,,,,,,,,
acc,1778673011.0,10.0,-2.105469,2.539062,-9.757812,,,,,,,,,,
acc,1778673011.0,10.0,-2.105469,2.347656,-9.878906,,,,,,,,,,
acc,1778673011.0,10.0,-2.027344,2.3125,-9.574219,,,,,,,,,,
acc,1778673011.0,10.0,-2.335938,2.464844,-10.074219,,,,,,,,,,
acc,1778673011.0,10.0,-2.257812,2.425781,-9.652344,,,,,,,,,,
acc,1778673011.0,10.0,-2.105469,2.695312,-9.652344,,,,,,,,,,
acc,1778673011.0,10.0,-2.105469,2.730469,-9.796875,,,,,,,,,,
acc,1778673011.0,10.0,-2.066406,2.769531,-9.414062,,,,,,,,,,
acc,1778673011.0,10.0,-2.066406,2.847656,-10.035156,,,,,,,,,,
acc,1778673011.0,10.0,-2.144531,2.578125,-9.761719,,,,,,,,,,
acc,1778673011.0,10.0,-2.296875,2.386719,-9.878906,,,,,,,,,,
acc,1778673011.0,10.0,-2.144531,2.347656,-9.875,,,,,,,,,,
acc,1778673011.0,10.0,-2.183594,2.386719,-9.835938,,,,,,,,,,
acc,1778673011.0,10.0,-2.21875,2.65625,-9.796875,,,,,,,,,,
acc,1778673011.0,10.0,-2.257812,2.730469,-9.992188,,,,,,,,,,
acc,1778673011.0,10.0,-2.21875,2.539062,-9.996094,,,,,,,,,,
acc,1778673011.0,10.0,-2.21875,2.503906,-9.757812,,,,,,,,,,
acc,1778673011.0,10.0,-2.144531,2.578125,-9.957031,,,,,,,,,,
acc,1778673011.0,10.0,-2.183594,2.617188,-9.761719,,,,,,,,,,
acc,1778673011.0,10.0,-2.257812,2.730469,-9.730469,,,,,,,,,,
acc,1778673011.0,10.0,-2.296875,2.464844,-10.113281,,,,,,,,,,
acc,1778673011.0,10.0,-2.21875,2.503906,-9.492188,,,,,,,,,,
acc,1778673011.0,10.0,-2.183594,2.503906,-9.53125,,,,,,,,,,
acc,1778673011.0,10.0,-2.105469,2.503906,-10.035156,,,,,,,,,,
acc,1778673011.0,10.0,-2.105469,2.695312,-9.34375,,,,,,,,,,
acc,1778673011.0,10.0,-2.144531,2.539062,-9.957031,,,,,,,,,,
acc,1778673011.0,10.0,-2.066406,2.539062,-10.183594,,,,,,,,,,
acc,1778673011.0,10.0,-2.027344,2.3125,-9.53125,,,,,,,,,,
acc,1778673011.0,10.0,-2.105469,2.3125,-10.566406,,,,,,,,,,
acc,1778673011.0,10.0,-1.914062,2.3125,-9.757812,,,,,,,,,,
acc,1778673011.0,10.0,-2.027344,2.347656,-10.074219,,,,,,,,,,
acc,1778673011.0,10.0,-2.027344,2.082031,-10.109375,,,,,,,,,,
acc,1778673011.0,10.0,-1.953125,1.964844,-9.835938,,,,,,,,,,
acc,1778673011.0,10.0,-2.066406,2.503906,-10.296875,,,,,,,,,,
acc,1778673011.0,10.0,-2.066406,2.082031,-9.996094,,,,,,,,,,
acc,1778673011.0,10.0,-2.066406,2.386719,-9.878906,,,,,,,,,,
acc,1778673011.0,10.0,-2.144531,2.425781,-10.222656,,,,,,,,,,
acc,1778673011.0,10.0,-1.953125,2.3125,-9.757812,,,,,,,,,,
acc,1778673011.0,10.0,-1.953125,2.464844,-9.953125,,,,,,,,,,
acc,1778673011.0,10.0,-1.914062,2.65625,-9.878906,,,,,,,,,,
acc,1778673011.0,10.0,-1.953125,2.539062,-9.6875,,,,,,,,,,
acc,1778673011.0,10.0,-1.953125,2.578125,-9.839844,,,,,,,,,,
acc,1778673012.0,11.0,-1.722656,2.65625,-9.648438,,,,,,,,,,
acc,1778673012.0,11.0,-1.644531,2.386719,-9.875,,,,,,,,,,
acc,1778673012.0,11.0,-1.914062,2.347656,-9.375,,,,,,,,,,
acc,1778673012.0,11.0,-1.800781,2.464844,-9.835938,,,,,,,,,,
acc,1778673012.0,11.0,-1.722656,2.769531,-9.757812,,,,,,,,,,
acc,1778673012.0,11.0,-1.800781,2.730469,-9.53125,,,,,,,,,,
acc,1778673012.0,11.0,-1.722656,3.0,-10.109375,,,,,,,,,,
acc,1778673012.0,11.0,-1.683594,3.152344,-9.535156,,,,,,,,,,
acc,1778673012.0,11.0,-1.761719,3.117188,-9.800781,,,,,,,,,,
acc,1778673012.0,11.0,-1.644531,3.382812,-10.113281,,,,,,,,,,
acc,1778673012.0,11.0,-1.53125,3.382812,-9.535156,,,,,,,,,,
acc,1778673012.0,11.0,-1.761719,3.152344,-9.992188,,,,,,,,,,
acc,1778673012.0,11.0,-1.761719,2.886719,-9.761719,,,,,,,,,,
acc,1778673012.0,11.0,-1.570312,2.925781,-9.691406,,,,,,,,,,
acc,1778673012.0,11.0,-1.453125,2.960938,-9.6875,,,,,,,,,,
acc,1778673012.0,11.0,-1.605469,3.117188,-9.609375,,,,,,,,,,
acc,1778673012.0,11.0,-1.683594,2.925781,-9.957031,,,,,,,,,,
acc,1778673012.0,11.0,-1.570312,3.039062,-9.648438,,,,,,,,,,
acc,1778673012.0,11.0,-1.492188,3.039062,-9.957031,,,,,,,,,,
acc,1778673012.0,11.0,-1.339844,2.730469,-9.613281,,,,,,,,,,
acc,1778673012.0,11.0,-1.453125,2.847656,-9.835938,,,,,,,,,,
acc,1778673012.0,11.0,-1.570312,2.886719,-9.6875,,,,,,,,,,
acc,1778673012.0,11.0,-1.414062,2.808594,-9.761719,,,,,,,,,,
acc,1778673012.0,11.0,-1.492188,3.0,-9.652344,,,,,,,,,,
acc,1778673012.0,11.0,-1.683594,2.886719,-9.609375,,,,,,,,,,
acc,1778673012.0,11.0,-1.800781,3.117188,-9.957031,,,,,,,,,,
acc,1778673012.0,11.0,-1.875,3.230469,-9.648438,,,,,,,,,,
acc,1778673012.0,11.0,-1.875,2.695312,-9.914062,,,,,,,,,,
acc,1778673012.0,11.0,-1.875,2.503906,-9.914062,,,,,,,,,,
acc,1778673012.0,11.0,-1.992188,2.769531,-9.796875,,,,,,,,,,
acc,1778673012.0,11.0,-2.144531,2.808594,-9.839844,,,,,,,,,,
acc,1778673012.0,11.0,-2.105469,2.769531,-9.757812,,,,,,,,,,
acc,1778673012.0,11.0,-1.953125,2.847656,-9.609375,,,,,,,,,,
acc,1778673012.0,11.0,-2.144531,2.886719,-9.609375,,,,,,,,,,
acc,1778673012.0,11.0,-2.21875,3.078125,-9.535156,,,,,,,,,,
acc,1778673012.0,11.0,-2.183594,2.925781,-9.535156,,,,,,,,,,
acc,1778673012.0,11.0,-2.144531,2.769531,-9.613281,,,,,,,,,,
acc,1778673012.0,11.0,-2.183594,2.960938,-9.535156,,,,,,,,,,
acc,1778673012.0,11.0,-2.257812,2.695312,-9.800781,,,,,,,,,,
acc,1778673012.0,11.0,-2.21875,2.617188,-9.652344,,,,,,,,,,
acc,1778673012.0,11.0,-2.257812,2.578125,-9.652344,,,,,,,,,,
acc,1778673012.0,11.0,-2.144531,2.464844,-9.914062,,,,,,,,,,
acc,1778673012.0,11.0,-2.144531,2.539062,-9.613281,,,,,,,,,,
acc,1778673012.0,11.0,-2.183594,2.769531,-9.6875,,,,,,,,,,
acc,1778673012.0,11.0,-2.21875,2.464844,-9.800781,,,,,,,,,,
acc,1778673012.0,11.0,-2.144531,2.386719,-9.648438,,,,,,,,,,
acc,1778673012.0,11.0,-2.183594,2.730469,-10.148438,,,,,,,,,,
acc,1778673012.0,11.0,-2.144531,3.0,-9.996094,,,,,,,,,,
acc,1778673012.0,11.0,-2.144531,3.382812,-9.878906,,,,,,,,,,
acc,1778673012.0,11.0,-2.144531,3.5,-10.070312,,,,,,,,,,
acc,1778673012.0,11.0,-1.953125,3.726562,-10.222656,,,,,,,,,,
acc,1778673012.0,11.0,-1.992188,3.382812,-9.996094,,,,,,,,,,
acc,1778673012.0,11.0,-2.027344,3.078125,-10.152344,,,,,,,,,,
acc,1778673012.0,11.0,-1.914062,2.730469,-10.148438,,,,,,,,,,
acc,1778673012.0,11.0,-1.992188,2.578125,-9.996094,,,,,,,,,,
acc,1778673012.0,11.0,-1.875,2.578125,-10.152344,,,,,,,,,,
acc,1778673012.0,11.0,-1.835938,2.730469,-10.257812,,,,,,,,,,
acc,1778673012.0,11.0,-1.953125,2.769531,-10.035156,,,,,,,,,,
acc,1778673012.0,11.0,-2.066406,3.039062,-10.5625,,,,,,,,,,
acc,1778673012.0,11.0,-1.992188,3.078125,-10.261719,,,,,,,,,,
acc,1778673012.0,11.0,-1.914062,3.117188,-10.378906,,,,,,,,,,
acc,1778673012.0,11.0,-1.800781,3.191406,-10.601562,,,,,,,,,,
acc,1778673012.0,11.0,-1.875,3.0,-10.222656,,,,,,,,,,
acc,1778673012.0,11.0,-1.875,3.34375,-10.457031,,,,,,,,,,
acc,1778673012.0,11.0,-1.953125,3.421875,-10.109375,,,,,,,,,,
acc,1778673012.0,11.0,-1.953125,3.5,-10.222656,,,,,,,,,,
acc,1778673012.0,11.0,-1.835938,3.652344,-9.796875,,,,,,,,,,
acc,1778673012.0,11.0,-1.492188,3.574219,-9.074219,,,,,,,,,,
acc,1778673012.0,11.0,-1.570312,3.421875,-9.269531,,,,,,,,,,
acc,1778673012.0,11.0,-1.800781,3.34375,-10.339844,,,,,,,,,,
acc,1778673012.0,11.0,-1.992188,3.421875,-11.753906,,,,,,,,,,
acc,1778673012.0,11.0,-1.570312,3.152344,-9.835938,,,,,,,,,,
acc,1778673012.0,11.0,-1.492188,3.191406,-9.835938,,,,,,,,,,
acc,1778673012.0,11.0,-1.605469,3.117188,-9.835938,,,,,,,,,,
acc,1778673012.0,11.0,-1.644531,3.0,-9.6875,,,,,,,,,,
acc,1778673012.0,11.0,-1.53125,3.230469,-9.730469,,,,,,,,,,
acc,1778673012.0,11.0,-1.453125,3.152344,-9.457031,,,,,,,,,,
acc,1778673012.0,11.0,-1.414062,2.808594,-9.34375,,,,,,,,,,
acc,1778673012.0,11.0,-1.453125,2.3125,-9.691406,,,,,,,,,,
acc,1778673012.0,11.0,-1.378906,1.929688,-9.453125,,,,,,,,,,
acc,1778673012.0,11.0,-1.261719,1.929688,-9.648438,,,,,,,,,,
acc,1778673012.0,11.0,-1.300781,2.234375,-9.496094,,,,,,,,,,
acc,1778673012.0,11.0,-1.414062,2.925781,-9.613281,,,,,,,,,,
acc,1778673012.0,11.0,-1.570312,3.039062,-9.304688,,,,,,,,,,
acc,1778673012.0,11.0,-1.644531,3.0,-9.726562,,,,,,,,,,
acc,1778673012.0,11.0,-1.605469,2.847656,-9.496094,,,,,,,,,,
acc,1778673012.0,11.0,-1.761719,2.886719,-9.796875,,,,,,,,,,
acc,1778673012.0,11.0,-1.722656,3.230469,-9.878906,,,,,,,,,,
acc,1778673012.0,11.0,-1.835938,3.574219,-9.730469,,,,,,,,,,
acc,1778673012.0,11.0,-1.992188,3.765625,-9.914062,,,,,,,,,,
acc,1778673012.0,11.0,-1.953125,3.726562,-9.796875,,,,,,,,,,
acc,1778673012.0,11.0,-1.722656,3.421875,-9.6875,,,,,,,,,,
acc,1778673012.0,11.0,-1.605469,3.5,-9.835938,,,,,,,,,,
acc,1778673012.0,11.0,-1.53125,3.039062,-9.613281,,,,,,,,,,
acc,1778673012.0,11.0,-1.492188,3.308594,-9.761719,,,,,,,,,,
acc,1778673012.0,11.0,-1.605469,3.957031,-9.691406,,,,,,,,,,
acc,1778673012.0,11.0,-1.570312,3.574219,-9.878906,,,,,,,,,,
acc,1778673012.0,11.0,-1.453125,3.535156,-9.726562,,,,,,,,,,
acc,1778673012.0,11.0,-1.492188,3.613281,-9.957031,,,,,,,,,,
acc,1778673012.0,11.0,-1.644531,3.921875,-9.757812,,,,,,,,,,
acc,1778673012.0,11.0,-1.800781,4.1875,-9.996094,,,,,,,,,,
acc,1778673012.0,11.0,-1.761719,3.957031,-9.875,,,,,,,,,,
acc,1778673012.0,11.0,-1.605469,3.804688,-9.839844,,,,,,,,,,
acc,1778673012.0,11.0,-1.683594,3.921875,-9.875,,,,,,,,,,
acc,1778673012.0,11.0,-1.492188,3.765625,-9.953125,,,,,,,,,,
acc,1778673012.0,11.0,-1.453125,3.5,-9.652344,,,,,,,,,,
acc,1778673012.0,11.0,-1.339844,3.691406,-9.839844,,,,,,,,,,
acc,1778673012.0,11.0,-1.1875,3.691406,-9.796875,,,,,,,,,,
acc,1778673012.0,11.0,-1.261719,3.460938,-9.492188,,,,,,,,,,
acc,1778673012.0,11.0,-1.453125,3.039062,-9.957031,,,,,,,,,,
acc,1778673012.0,11.0,-1.261719,3.117188,-9.492188,,,,,,,,,,
acc,1778673012.0,11.0,-1.148438,3.308594,-9.796875,,,,,,,,,,
acc,1778673012.0,11.0,-1.03125,3.117188,-9.761719,,,,,,,,,,
acc,1778673012.0,11.0,-1.148438,2.886719,-9.414062,,,,,,,,,,
acc,1778673012.0,11.0,-1.261719,3.0,-9.453125,,,,,,,,,,
acc,1778673012.0,11.0,-1.109375,3.078125,-9.726562,,,,,,,,,,
acc,1778673012.0,11.0,-1.148438,3.0,-9.378906,,,,,,,,,,
acc,1778673012.0,11.0,-1.339844,2.617188,-9.875,,,,,,,,,,
acc,1778673012.0,11.0,-1.339844,2.503906,-9.796875,,,,,,,,,,
acc,1778673012.0,11.0,-1.222656,2.808594,-9.609375,,,,,,,,,,
acc,1778673012.0,11.0,-1.222656,2.578125,-9.992188,,,,,,,,,,
acc,1778673012.0,11.0,-1.261719,2.65625,-9.691406,,,,,,,,,,
acc,1778673012.0,11.0,-1.300781,3.152344,-9.726562,,,,,,,,,,
acc,1778673012.0,11.0,-1.1875,3.691406,-9.457031,,,,,,,,,,
acc,1778673012.0,11.0,-1.148438,3.574219,-9.230469,,,,,,,,,,
acc,1778673012.0,11.0,-1.109375,3.078125,-9.761719,,,,,,,,,,
acc,1778673012.0,11.0,-1.1875,3.117188,-9.609375,,,,,,,,,,
acc,1778673013.0,12.0,-1.300781,3.382812,-9.417969,,,,,,,,,,
acc,1778673013.0,12.0,-1.339844,3.996094,-9.800781,,,,,,,,,,
acc,1778673013.0,12.0,-1.148438,4.226562,-9.496094,,,,,,,,,,
acc,1778673013.0,12.0,-1.148438,3.882812,-9.839844,,,,,,,,,,
acc,1778673013.0,12.0,-1.339844,3.421875,-9.6875,,,,,,,,,,
acc,1778673013.0,12.0,-1.414062,3.269531,-9.878906,,,,,,,,,,
acc,1778673013.0,12.0,-1.414062,3.230469,-9.914062,,,,,,,,,,
acc,1778673013.0,12.0,-1.300781,3.421875,-9.800781,,,,,,,,,,
acc,1778673013.0,12.0,-1.261719,3.34375,-10.03125,,,,,,,,,,
acc,1778673013.0,12.0,-1.300781,3.269531,-9.878906,,,,,,,,,,
acc,1778673013.0,12.0,-1.300781,2.925781,-9.761719,,,,,,,,,,
acc,1778673013.0,12.0,-1.222656,3.039062,-9.800781,,,,,,,,,,
acc,1778673013.0,12.0,-1.109375,3.421875,-9.835938,,,,,,,,,,
acc,1778673013.0,12.0,-0.957031,3.613281,-9.757812,,,,,,,,,,
acc,1778673013.0,12.0,-1.109375,3.84375,-9.996094,,,,,,,,,,
acc,1778673013.0,12.0,-1.070312,3.191406,-9.917969,,,,,,,,,,
acc,1778673013.0,12.0,-1.03125,2.808594,-9.957031,,,,,,,,,,
acc,1778673013.0,12.0,-1.070312,3.230469,-9.957031,,,,,,,,,,
acc,1778673013.0,12.0,-1.148438,3.117188,-10.035156,,,,,,,,,,
acc,1778673013.0,12.0,-1.109375,2.808594,-9.917969,,,,,,,,,,
acc,1778673013.0,12.0,-1.109375,2.960938,-10.152344,,,,,,,,,,
acc,1778673013.0,12.0,-0.996094,2.808594,-9.835938,,,,,,,,,,
acc,1778673013.0,12.0,-0.6875,3.117188,-10.074219,,,,,,,,,,
acc,1778673013.0,12.0,-0.839844,3.152344,-9.835938,,,,,,,,,,
acc,1778673013.0,12.0,-0.917969,3.0,-10.03125,,,,,,,,,,
acc,1778673013.0,12.0,-0.917969,3.34375,-10.074219,,,,,,,,,,
acc,1778673013.0,12.0,-0.878906,3.421875,-9.796875,,,,,,,,,,
acc,1778673013.0,12.0,-0.839844,3.34375,-9.992188,,,,,,,,,,
acc,1778673013.0,12.0,-0.726562,3.574219,-9.761719,,,,,,,,,,
acc,1778673013.0,12.0,-0.765625,4.035156,-9.796875,,,,,,,,,,
acc,1778673013.0,12.0,-0.804688,3.765625,-9.953125,,,,,,,,,,
acc,1778673013.0,12.0,-0.726562,3.765625,-9.839844,,,,,,,,,,
acc,1778673013.0,12.0,-0.726562,3.613281,-10.03125,,,,,,,,,,
acc,1778673013.0,12.0,-0.613281,3.269531,-9.757812,,,,,,,,,,
acc,1778673013.0,12.0,-0.613281,3.574219,-9.839844,,,,,,,,,,
acc,1778673013.0,12.0,-0.6875,3.421875,-9.726562,,,,,,,,,,
acc,1778673013.0,12.0,-0.765625,3.230469,-9.914062,,,,,,,,,,
acc,1778673013.0,12.0,-0.765625,3.34375,-9.761719,,,,,,,,,,
acc,1778673013.0,12.0,-0.726562,3.382812,-10.21875,,,,,,,,,,
acc,1778673013.0,12.0,-0.574219,3.421875,-9.691406,,,,,,,,,,
acc,1778673013.0,12.0,-0.496094,3.039062,-9.992188,,,,,,,,,,
acc,1778673013.0,12.0,-0.496094,3.382812,-9.648438,,,,,,,,,,
acc,1778673013.0,12.0,-0.574219,3.5,-9.6875,,,,,,,,,,
acc,1778673013.0,12.0,-0.496094,3.269531,-9.914062,,,,,,,,,,
acc,1778673013.0,12.0,-0.496094,3.5,-9.492188,,,,,,,,,,
acc,1778673013.0,12.0,-0.726562,3.5,-9.835938,,,,,,,,,,
acc,1778673013.0,12.0,-0.574219,3.230469,-10.074219,,,,,,,,,,
acc,1778673013.0,12.0,-0.417969,3.0,-9.730469,,,,,,,,,,
acc,1778673013.0,12.0,-0.765625,3.535156,-9.796875,,,,,,,,,,
acc,1778673013.0,12.0,-0.839844,3.230469,-10.152344,,,,,,,,,,
acc,1778673013.0,12.0,-0.804688,2.960938,-9.6875,,,,,,,,,,
acc,1778673013.0,12.0,-1.03125,3.117188,-9.839844,,,,,,,,,,
acc,1778673013.0,12.0,-0.957031,3.039062,-10.148438,,,,,,,,,,
acc,1778673013.0,12.0,-0.878906,2.925781,-9.691406,,,,,,,,,,
acc,1778673013.0,12.0,-0.917969,3.191406,-9.761719,,,,,,,,,,
acc,1778673013.0,12.0,-0.839844,3.382812,-9.730469,,,,,,,,,,
acc,1778673013.0,12.0,-0.765625,3.921875,-9.800781,,,,,,,,,,
acc,1778673013.0,12.0,-0.878906,4.1875,-9.648438,,,,,,,,,,
acc,1778673013.0,12.0,-0.996094,3.726562,-10.109375,,,,,,,,,,
acc,1778673013.0,12.0,-0.957031,3.84375,-10.03125,,,,,,,,,,
acc,1778673013.0,12.0,-0.957031,4.148438,-9.957031,,,,,,,,,,
acc,1778673013.0,12.0,-0.839844,4.148438,-10.035156,,,,,,,,,,
acc,1778673013.0,12.0,-0.765625,4.265625,-9.875,,,,,,,,,,
acc,1778673013.0,12.0,-0.839844,4.226562,-9.835938,,,,,,,,,,
acc,1778673013.0,12.0,-0.839844,3.921875,-9.996094,,,,,,,,,,
acc,1778673013.0,12.0,-0.613281,3.921875,-9.796875,,,,,,,,,,
acc,1778673013.0,12.0,-0.6875,3.957031,-9.875,,,,,,,,,,
acc,1778673013.0,12.0,-0.613281,3.882812,-9.800781,,,,,,,,,,
acc,1778673013.0,12.0,-0.648438,3.691406,-10.183594,,,,,,,,,,
acc,1778673013.0,12.0,-0.496094,3.726562,-9.875,,,,,,,,,,
acc,1778673013.0,12.0,-0.496094,3.84375,-9.914062,,,,,,,,,,
acc,1778673013.0,12.0,-0.496094,3.957031,-9.992188,,,,,,,,,,
acc,1778673013.0,12.0,-0.457031,3.84375,-9.835938,,,,,,,,,,
acc,1778673013.0,12.0,-0.417969,3.574219,-9.996094,,,,,,,,,,
acc,1778673013.0,12.0,-0.34375,3.957031,-9.992188,,,,,,,,,,
acc,1778673013.0,12.0,-0.382812,4.035156,-9.835938,,,,,,,,,,
acc,1778673013.0,12.0,-0.191406,3.882812,-10.152344,,,,,,,,,,
acc,1778673013.0,12.0,-0.226562,3.460938,-9.691406,,,,,,,,,,
acc,1778673013.0,12.0,-0.152344,3.34375,-10.109375,,,,,,,,,,
acc,1778673013.0,12.0,-0.34375,3.535156,-9.730469,,,,,,,,,,
acc,1778673013.0,12.0,-0.304688,3.0,-10.070312,,,,,,,,,,
acc,1778673013.0,12.0,-0.34375,3.5,-9.492188,,,,,,,,,,
acc,1778673013.0,12.0,-0.496094,3.726562,-10.183594,,,,,,,,,,
acc,1778673013.0,12.0,-0.34375,3.117188,-9.691406,,,,,,,,,,
acc,1778673013.0,12.0,-0.113281,3.421875,-9.878906,,,,,,,,,,
acc,1778673013.0,12.0,-0.191406,3.382812,-9.652344,,,,,,,,,,
acc,1778673013.0,12.0,-0.074219,3.152344,-9.535156,,,,,,,,,,
acc,1778673013.0,12.0,0.0,3.421875,-9.652344,,,,,,,,,,
acc,1778673013.0,12.0,0.039062,3.726562,-9.453125,,,,,,,,,,
acc,1778673013.0,12.0,-0.035156,4.113281,-9.691406,,,,,,,,,,
acc,1778673013.0,12.0,-0.074219,4.339844,-9.726562,,,,,,,,,,
acc,1778673013.0,12.0,-0.035156,4.265625,-9.613281,,,,,,,,,,
acc,1778673013.0,12.0,0.078125,3.996094,-9.574219,,,,,,,,,,
acc,1778673013.0,12.0,0.078125,4.074219,-9.761719,,,,,,,,,,
acc,1778673013.0,12.0,0.078125,3.996094,-9.414062,,,,,,,,,,
acc,1778673013.0,12.0,0.15625,3.957031,-9.757812,,,,,,,,,,
acc,1778673013.0,12.0,0.191406,3.691406,-10.074219,,,,,,,,,,
acc,1778673013.0,12.0,0.117188,3.804688,-9.726562,,,,,,,,,,
acc,1778673013.0,12.0,0.0,3.996094,-9.835938,,,,,,,,,,
acc,1778673013.0,12.0,0.0,3.996094,-9.875,,,,,,,,,,
acc,1778673013.0,12.0,0.15625,3.726562,-9.757812,,,,,,,,,,
acc,1778673013.0,12.0,0.230469,3.382812,-9.878906,,,,,,,,,,
acc,1778673013.0,12.0,0.039062,3.230469,-9.796875,,,,,,,,,,
acc,1778673013.0,12.0,-0.035156,3.5,-9.835938,,,,,,,,,,
acc,1778673013.0,12.0,0.0,3.039062,-9.835938,,,,,,,,,,
acc,1778673013.0,12.0,0.15625,3.152344,-10.03125,,,,,,,,,,
acc,1778673013.0,12.0,0.15625,3.078125,-9.574219,,,,,,,,,,
acc,1778673013.0,12.0,0.15625,2.808594,-10.109375,,,,,,,,,,
acc,1778673013.0,12.0,0.308594,2.925781,-9.730469,,,,,,,,,,
acc,1778673013.0,12.0,0.117188,2.730469,-10.070312,,,,,,,,,,
acc,1778673013.0,12.0,0.078125,2.695312,-9.996094,,,,,,,,,,
acc,1778673013.0,12.0,0.078125,3.230469,-9.878906,,,,,,,,,,
acc,1778673013.0,12.0,0.117188,3.882812,-10.074219,,,,,,,,,,
acc,1778673013.0,12.0,0.0,3.574219,-9.570312,,,,,,,,,,
acc,1778673013.0,12.0,-0.191406,3.5,-10.035156,,,,,,,,,,
acc,1778673013.0,12.0,-0.074219,3.308594,-9.6875,,,,,,,,,,
acc,1778673013.0,12.0,0.078125,3.5,-9.648438,,,,,,,,,,
acc,1778673013.0,12.0,-0.074219,4.496094,-9.378906,,,,,,,,,,
acc,1778673013.0,12.0,0.15625,4.1875,-9.875,,,,,,,,,,
acc,1778673013.0,12.0,0.460938,4.074219,-9.34375,,,,,,,,,,
acc,1778673013.0,12.0,0.347656,4.339844,-9.457031,,,,,,,,,,
acc,1778673013.0,12.0,0.382812,3.882812,-9.914062,,,,,,,,,,
acc,1778673013.0,12.0,0.382812,3.726562,-9.453125,,,,,,,,,,
acc,1778673013.0,12.0,0.269531,3.882812,-10.257812,,,,,,,,,,
acc,1778673013.0,12.0,0.191406,3.84375,-9.496094,,,,,,,,,,
acc,1778673013.0,12.0,0.269531,3.726562,-10.074219,,,,,,,,,,
acc,1778673013.0,12.0,0.269531,3.574219,-9.796875,,,,,,,,,,
acc,1778673013.0,12.0,0.191406,3.765625,-9.574219,,,,,,,,,,
acc,1778673014.0,13.0,0.230469,3.613281,-10.152344,,,,,,,,,,
acc,1778673014.0,13.0,0.15625,3.691406,-9.269531,,,,,,,,,,
acc,1778673014.0,13.0,0.191406,3.613281,-10.152344,,,,,,,,,,
acc,1778673014.0,13.0,0.191406,3.574219,-9.53125,,,,,,,,,,
acc,1778673014.0,13.0,0.0,3.535156,-9.800781,,,,,,,,,,
acc,1778673014.0,13.0,0.039062,3.039062,-9.835938,,,,,,,,,,
acc,1778673014.0,13.0,0.117188,3.230469,-9.613281,,,,,,,,,,
acc,1778673014.0,13.0,0.191406,3.691406,-10.300781,,,,,,,,,,
acc,1778673014.0,13.0,0.039062,3.535156,-9.492188,,,,,,,,,,
acc,1778673014.0,13.0,-0.035156,3.652344,-10.21875,,,,,,,,,,
acc,1778673014.0,13.0,-0.074219,2.886719,-9.453125,,,,,,,,,,
acc,1778673014.0,13.0,0.039062,3.0,-10.21875,,,,,,,,,,
acc,1778673014.0,13.0,-0.113281,3.117188,-9.691406,,,,,,,,,,
acc,1778673014.0,13.0,-0.191406,3.230469,-9.453125,,,,,,,,,,
acc,1778673014.0,13.0,-0.113281,3.460938,-9.914062,,,,,,,,,,
acc,1778673014.0,13.0,-0.113281,3.574219,-9.839844,,,,,,,,,,
acc,1778673014.0,13.0,-0.265625,3.230469,-9.875,,,,,,,,,,
acc,1778673014.0,13.0,-0.34375,3.382812,-9.835938,,,,,,,,,,
acc,1778673014.0,13.0,-0.265625,3.574219,-9.875,,,,,,,,,,
acc,1778673014.0,13.0,-0.152344,3.535156,-9.914062,,,,,,,,,,
acc,1778673014.0,13.0,-0.074219,3.726562,-9.652344,,,,,,,,,,
acc,1778673014.0,13.0,-0.035156,3.804688,-9.570312,,,,,,,,,,
acc,1778673014.0,13.0,-0.191406,3.921875,-9.648438,,,,,,,,,,
acc,1778673014.0,13.0,-0.074219,3.535156,-9.457031,,,,,,,,,,
acc,1778673014.0,13.0,0.0,3.460938,-9.648438,,,,,,,,,,
acc,1778673014.0,13.0,-0.226562,3.5,-9.230469,,,,,,,,,,
acc,1778673014.0,13.0,-0.304688,3.726562,-9.878906,,,,,,,,,,
acc,1778673014.0,13.0,-0.074219,3.921875,-9.492188,,,,,,,,,,
acc,1778673014.0,13.0,-0.34375,3.765625,-9.652344,,,,,,,,,,
acc,1778673014.0,13.0,-0.613281,3.308594,-9.800781,,,,,,,,,,
acc,1778673014.0,13.0,-0.648438,3.460938,-9.613281,,,,,,,,,,
acc,1778673014.0,13.0,-0.535156,3.421875,-9.839844,,,,,,,,,,
acc,1778673014.0,13.0,-0.417969,3.535156,-9.835938,,,,,,,,,,
acc,1778673014.0,13.0,-0.457031,3.308594,-9.453125,,,,,,,,,,
acc,1778673014.0,13.0,-0.34375,3.460938,-9.992188,,,,,,,,,,
acc,1778673014.0,13.0,-0.265625,3.460938,-9.613281,,,,,,,,,,
acc,1778673014.0,13.0,-0.265625,2.925781,-9.761719,,,,,,,,,,
acc,1778673014.0,13.0,-0.226562,2.925781,-9.953125,,,,,,,,,,
acc,1778673014.0,13.0,-0.417969,3.535156,-9.730469,,,,,,,,,,
acc,1778673014.0,13.0,-0.457031,3.152344,-9.953125,,,,,,,,,,
acc,1778673014.0,13.0,-0.226562,3.0,-9.574219,,,,,,,,,,
acc,1778673014.0,13.0,-0.113281,3.308594,-9.800781,,,,,,,,,,
acc,1778673014.0,13.0,-0.152344,3.613281,-9.875,,,,,,,,,,
acc,1778673014.0,13.0,-0.226562,3.574219,-9.726562,,,,,,,,,,
acc,1778673014.0,13.0,-0.304688,3.726562,-9.917969,,,,,,,,,,
acc,1778673014.0,13.0,-0.417969,3.652344,-10.074219,,,,,,,,,,
acc,1778673014.0,13.0,-0.34375,3.460938,-10.03125,,,,,,,,,,
acc,1778673014.0,13.0,-0.265625,3.5,-9.761719,,,,,,,,,,
acc,1778673014.0,13.0,-0.226562,3.726562,-9.574219,,,,,,,,,,
acc,1778673014.0,13.0,-0.265625,3.921875,-10.074219,,,,,,,,,,
acc,1778673014.0,13.0,-0.226562,3.421875,-9.34375,,,,,,,,,,
acc,1778673014.0,13.0,-0.304688,3.726562,-9.996094,,,,,,,,,,
acc,1778673014.0,13.0,-0.265625,3.765625,-10.03125,,,,,,,,,,
acc,1778673014.0,13.0,-0.265625,3.421875,-9.992188,,,,,,,,,,
acc,1778673014.0,13.0,-0.382812,3.691406,-9.878906,,,,,,,,,,
acc,1778673014.0,13.0,-0.382812,3.574219,-10.035156,,,,,,,,,,
acc,1778673014.0,13.0,-0.34375,3.535156,-9.992188,,,,,,,,,,
acc,1778673014.0,13.0,-0.417969,3.460938,-9.875,,,,,,,,,,
acc,1778673014.0,13.0,-0.265625,3.460938,-9.996094,,,,,,,,,,
acc,1778673014.0,13.0,-0.152344,3.804688,-9.878906,,,,,,,,,,
acc,1778673014.0,13.0,-0.226562,3.421875,-9.796875,,,,,,,,,,
acc,1778673014.0,13.0,-0.191406,3.382812,-9.917969,,,,,,,,,,
acc,1778673014.0,13.0,-0.152344,3.921875,-9.570312,,,,,,,,,,
acc,1778673014.0,13.0,-0.265625,3.957031,-9.761719,,,,,,,,,,
acc,1778673014.0,13.0,-0.382812,3.765625,-9.496094,,,,,,,,,,
acc,1778673014.0,13.0,-0.304688,3.613281,-9.570312,,,,,,,,,,
acc,1778673014.0,13.0,-0.191406,3.765625,-9.757812,,,,,,,,,,
acc,1778673014.0,13.0,-0.226562,3.882812,-9.453125,,,,,,,,,,
acc,1778673014.0,13.0,-0.226562,4.339844,-9.875,,,,,,,,,,
acc,1778673014.0,13.0,-0.34375,4.265625,-10.035156,,,,,,,,,,
acc,1778673014.0,13.0,-0.382812,4.113281,-9.609375,,,,,,,,,,
acc,1778673014.0,13.0,-0.265625,3.765625,-9.992188,,,,,,,,,,
acc,1778673014.0,13.0,-0.265625,3.84375,-9.917969,,,,,,,,,,
acc,1778673014.0,13.0,-0.34375,3.421875,-9.917969,,,,,,,,,,
acc,1778673014.0,13.0,-0.226562,2.847656,-9.917969,,,,,,,,,,
acc,1778673014.0,13.0,-0.265625,3.230469,-10.03125,,,,,,,,,,
acc,1778673014.0,13.0,-0.496094,3.535156,-9.835938,,,,,,,,,,
acc,1778673014.0,13.0,-0.457031,3.691406,-9.796875,,,,,,,,,,
acc,1778673014.0,13.0,-0.535156,3.5,-10.03125,,,,,,,,,,
acc,1778673014.0,13.0,-0.382812,3.34375,-10.03125,,,,,,,,,,
acc,1778673014.0,13.0,-0.535156,3.652344,-9.691406,,,,,,,,,,
acc,1778673014.0,13.0,-0.574219,3.765625,-10.074219,,,,,,,,,,
acc,1778673014.0,13.0,-0.457031,3.921875,-9.957031,,,,,,,,,,
acc,1778673014.0,13.0,-0.496094,3.691406,-9.570312,,,,,,,,,,
acc,1778673014.0,13.0,-0.535156,3.574219,-10.035156,,,,,,,,,,
acc,1778673014.0,13.0,-0.417969,3.882812,-9.691406,,,,,,,,,,
acc,1778673014.0,13.0,-0.191406,3.921875,-9.800781,,,,,,,,,,
acc,1778673014.0,13.0,-0.113281,4.113281,-9.875,,,,,,,,,,
acc,1778673014.0,13.0,-0.265625,4.035156,-9.570312,,,,,,,,,,
acc,1778673014.0,13.0,-0.226562,3.613281,-9.875,,,,,,,,,,
acc,1778673014.0,13.0,-0.152344,3.691406,-9.652344,,,,,,,,,,
acc,1778673014.0,13.0,-0.113281,3.957031,-9.574219,,,,,,,,,,
acc,1778673014.0,13.0,-0.113281,4.035156,-9.757812,,,,,,,,,,
acc,1778673014.0,13.0,-0.152344,4.304688,-9.761719,,,,,,,,,,
acc,1778673014.0,13.0,-0.226562,3.765625,-9.839844,,,,,,,,,,
acc,1778673014.0,13.0,-0.152344,3.535156,-10.03125,,,,,,,,,,
acc,1778673014.0,13.0,-0.265625,3.804688,-9.835938,,,,,,,,,,
acc,1778673014.0,13.0,-0.34375,3.84375,-9.992188,,,,,,,,,,
acc,1778673014.0,13.0,-0.191406,3.574219,-9.730469,,,,,,,,,,
acc,1778673014.0,13.0,-0.113281,3.691406,-9.957031,,,,,,,,,,
acc,1778673014.0,13.0,-0.191406,3.804688,-9.730469,,,,,,,,,,
acc,1778673014.0,13.0,-0.226562,3.652344,-9.835938,,,,,,,,,,
acc,1778673014.0,13.0,-0.304688,3.921875,-9.648438,,,,,,,,,,
acc,1778673014.0,13.0,-0.613281,3.921875,-9.6875,,,,,,,,,,
acc,1778673014.0,13.0,-0.417969,3.882812,-9.757812,,,,,,,,,,
acc,1778673014.0,13.0,-0.152344,3.765625,-9.6875,,,,,,,,,,
acc,1778673014.0,13.0,-0.074219,3.574219,-9.691406,,,,,,,,,,
acc,1778673014.0,13.0,-0.152344,4.265625,-9.917969,,,,,,,,,,
acc,1778673014.0,13.0,-0.34375,4.074219,-9.726562,,,,,,,,,,
acc,1778673014.0,13.0,-0.574219,3.996094,-9.652344,,,,,,,,,,
acc,1778673014.0,13.0,-0.304688,3.230469,-10.03125,,,,,,,,,,
acc,1778673014.0,13.0,-0.074219,2.847656,-9.800781,,,,,,,,,,
acc,1778673014.0,13.0,-0.265625,2.847656,-9.648438,,,,,,,,,,
acc,1778673014.0,13.0,-0.34375,2.503906,-9.796875,,,,,,,,,,
acc,1778673014.0,13.0,-0.382812,2.847656,-9.6875,,,,,,,,,,
acc,1778673014.0,13.0,-0.226562,3.308594,-9.914062,,,,,,,,,,
acc,1778673014.0,13.0,-0.191406,3.34375,-9.457031,,,,,,,,,,
acc,1778673014.0,13.0,-0.382812,3.308594,-9.53125,,,,,,,,,,
acc,1778673014.0,13.0,-0.382812,3.421875,-9.496094,,,,,,,,,,
acc,1778673014.0,13.0,-0.226562,3.0,-9.375,,,,,,,,,,
acc,1778673014.0,13.0,-0.191406,2.730469,-9.53125,,,,,,,,,,
acc,1778673014.0,13.0,-0.34375,3.152344,-9.691406,,,,,,,,,,
acc,1778673014.0,13.0,-0.496094,3.382812,-9.691406,,,,,,,,,,
acc,1778673014.0,13.0,-0.496094,3.308594,-9.730469,,,,,,,,,,
acc,1778673014.0,13.0,-0.382812,3.535156,-9.800781,,,,,,,,,,
acc,1778673014.0,13.0,-0.417969,3.535156,-10.148438,,,,,,,,,,
acc,1778673014.0,13.0,-0.496094,3.613281,-10.074219,,,,,,,,,,
acc,1778673015.0,14.0,-0.457031,3.652344,-10.074219,,,,,,,,,,
acc,1778673015.0,14.0,-0.304688,3.34375,-9.996094,,,,,,,,,,
acc,1778673015.0,14.0,-0.152344,3.34375,-9.992188,,,,,,,,,,
acc,1778673015.0,14.0,-0.226562,3.765625,-9.996094,,,,,,,,,,
acc,1778673015.0,14.0,-0.34375,3.691406,-9.996094,,,,,,,,,,
acc,1778673015.0,14.0,-0.304688,3.535156,-10.152344,,,,,,,,,,
acc,1778673015.0,14.0,-0.304688,3.613281,-9.796875,,,,,,,,,,
acc,1778673015.0,14.0,-0.265625,3.652344,-9.839844,,,,,,,,,,
acc,1778673015.0,14.0,-0.265625,4.304688,-9.800781,,,,,,,,,,
acc,1778673015.0,14.0,-0.265625,4.035156,-9.6875,,,,,,,,,,
acc,1778673015.0,14.0,-0.191406,3.957031,-10.070312,,,,,,,,,,
acc,1778673015.0,14.0,-0.191406,4.113281,-9.378906,,,,,,,,,,
acc,1778673015.0,14.0,-0.035156,3.84375,-9.914062,,,,,,,,,,
acc,1778673015.0,14.0,-0.074219,3.84375,-9.496094,,,,,,,,,,
acc,1778673015.0,14.0,-0.035156,4.074219,-9.957031,,,,,,,,,,
acc,1778673015.0,14.0,-0.226562,4.457031,-10.109375,,,,,,,,,,
acc,1778673015.0,14.0,-0.34375,3.804688,-9.613281,,,,,,,,,,
acc,1778673015.0,14.0,-0.34375,3.613281,-9.953125,,,,,,,,,,
acc,1778673015.0,14.0,-0.265625,3.84375,-9.796875,,,,,,,,,,
acc,1778673015.0,14.0,-0.152344,2.808594,-9.691406,,,,,,,,,,
acc,1778673015.0,14.0,-0.152344,3.078125,-9.875,,,,,,,,,,
acc,1778673015.0,14.0,-0.226562,3.269531,-9.914062,,,,,,,,,,
acc,1778673015.0,14.0,-0.265625,3.535156,-9.878906,,,,,,,,,,
acc,1778673015.0,14.0,-0.304688,3.652344,-9.796875,,,,,,,,,,
acc,1778673015.0,14.0,-0.152344,3.691406,-9.796875,,,,,,,,,,
acc,1778673015.0,14.0,-0.152344,3.574219,-9.613281,,,,,,,,,,
acc,1778673015.0,14.0,-0.074219,3.039062,-9.6875,,,,,,,,,,
acc,1778673015.0,14.0,-0.152344,3.308594,-9.691406,,,,,,,,,,
acc,1778673015.0,14.0,-0.226562,3.308594,-9.953125,,,,,,,,,,
acc,1778673015.0,14.0,-0.113281,3.308594,-9.914062,,,,,,,,,,
acc,1778673015.0,14.0,-0.152344,3.191406,-9.535156,,,,,,,,,,
acc,1778673015.0,14.0,-0.152344,3.191406,-9.957031,,,,,,,,,,
acc,1778673015.0,14.0,-0.113281,3.535156,-9.53125,,,,,,,,,,
acc,1778673015.0,14.0,-0.113281,3.535156,-9.914062,,,,,,,,,,
acc,1778673015.0,14.0,-0.265625,3.882812,-9.726562,,,,,,,,,,
acc,1778673015.0,14.0,-0.382812,4.226562,-9.992188,,,,,,,,,,
acc,1778673015.0,14.0,-0.34375,3.574219,-10.113281,,,,,,,,,,
acc,1778673015.0,14.0,-0.265625,3.34375,-9.726562,,,,,,,,,,
acc,1778673015.0,14.0,-0.496094,3.34375,-10.074219,,,,,,,,,,
acc,1778673015.0,14.0,-0.457031,3.574219,-10.035156,,,,,,,,,,
acc,1778673015.0,14.0,-0.496094,3.613281,-9.53125,,,,,,,,,,
acc,1778673015.0,14.0,-0.417969,3.5,-9.914062,,,,,,,,,,
acc,1778673015.0,14.0,-0.226562,3.957031,-9.800781,,,,,,,,,,
acc,1778673015.0,14.0,-0.191406,3.957031,-9.796875,,,,,,,,,,
acc,1778673015.0,14.0,-0.152344,3.84375,-9.53125,,,,,,,,,,
acc,1778673015.0,14.0,-0.074219,4.074219,-10.109375,,,,,,,,,,
acc,1778673015.0,14.0,-0.074219,4.074219,-9.835938,,,,,,,,,,
acc,1778673015.0,14.0,-0.152344,3.535156,-9.800781,,,,,,,,,,
acc,1778673015.0,14.0,-0.113281,3.421875,-9.878906,,,,,,,,,,
acc,1778673015.0,14.0,-0.152344,3.191406,-9.6875,,,,,,,,,,
acc,1778673015.0,14.0,-0.304688,3.460938,-9.796875,,,,,,,,,,
acc,1778673015.0,14.0,-0.191406,3.882812,-9.796875,,,,,,,,,,
acc,1778673015.0,14.0,-0.152344,3.382812,-9.648438,,,,,,,,,,
acc,1778673015.0,14.0,-0.113281,3.382812,-9.914062,,,,,,,,,,
acc,1778673015.0,14.0,-0.035156,3.269531,-9.953125,,,,,,,,,,
acc,1778673015.0,14.0,-0.035156,3.152344,-10.074219,,,,,,,,,,
acc,1778673015.0,14.0,-0.152344,3.382812,-9.953125,,,,,,,,,,
acc,1778673015.0,14.0,-0.265625,3.613281,-10.261719,,,,,,,,,,
acc,1778673015.0,14.0,-0.304688,3.382812,-9.796875,,,,,,,,,,
acc,1778673015.0,14.0,-0.382812,3.421875,-10.070312,,,,,,,,,,
acc,1778673015.0,14.0,-0.382812,3.460938,-9.648438,,,,,,,,,,
acc,1778673015.0,14.0,-0.34375,3.191406,-9.957031,,,,,,,,,,
acc,1778673015.0,14.0,-0.265625,3.382812,-9.957031,,,,,,,,,,
acc,1778673015.0,14.0,-0.34375,3.613281,-9.800781,,,,,,,,,,
acc,1778673015.0,14.0,-0.265625,3.535156,-10.113281,,,,,,,,,,
acc,1778673015.0,14.0,-0.417969,3.5,-9.691406,,,,,,,,,,
acc,1778673015.0,14.0,-0.535156,3.34375,-9.992188,,,,,,,,,,
acc,1778673015.0,14.0,-0.226562,3.230469,-9.878906,,,,,,,,,,
acc,1778673015.0,14.0,-0.226562,3.421875,-9.796875,,,,,,,,,,
acc,1778673015.0,14.0,-0.34375,3.574219,-9.996094,,,,,,,,,,
acc,1778673015.0,14.0,-0.382812,3.382812,-9.992188,,,,,,,,,,
acc,1778673015.0,14.0,-0.34375,3.117188,-9.992188,,,,,,,,,,
acc,1778673015.0,14.0,-0.382812,3.382812,-9.691406,,,,,,,,,,
acc,1778673015.0,14.0,-0.152344,3.382812,-9.835938,,,,,,,,,,
acc,1778673015.0,14.0,0.0,3.230469,-9.535156,,,,,,,,,,
acc,1778673015.0,14.0,-0.113281,3.535156,-9.609375,,,,,,,,,,
acc,1778673015.0,14.0,-0.226562,3.574219,-9.917969,,,,,,,,,,
acc,1778673015.0,14.0,-0.265625,3.613281,-9.570312,,,,,,,,,,
acc,1778673015.0,14.0,-0.191406,3.765625,-9.914062,,,,,,,,,,
acc,1778673015.0,14.0,-0.226562,3.84375,-9.835938,,,,,,,,,,
acc,1778673015.0,14.0,-0.191406,3.996094,-10.070312,,,,,,,,,,
acc,1778673015.0,14.0,-0.265625,3.996094,-9.917969,,,,,,,,,,
acc,1778673015.0,14.0,-0.457031,3.535156,-9.992188,,,,,,,,,,
acc,1778673015.0,14.0,-0.265625,3.152344,-10.222656,,,,,,,,,,
acc,1778673015.0,14.0,-0.152344,2.730469,-9.917969,,,,,,,,,,
acc,1778673015.0,14.0,-0.304688,2.960938,-9.917969,,,,,,,,,,
acc,1778673015.0,14.0,-0.457031,3.191406,-9.917969,,,,,,,,,,
acc,1778673015.0,14.0,-0.304688,3.460938,-9.652344,,,,,,,,,,
acc,1778673015.0,14.0,-0.304688,3.921875,-10.183594,,,,,,,,,,
acc,1778673015.0,14.0,-0.304688,3.152344,-9.957031,,,,,,,,,,
acc,1778673015.0,14.0,-0.417969,2.769531,-10.03125,,,,,,,,,,
acc,1778673015.0,14.0,-0.648438,3.613281,-10.179688,,,,,,,,,,
acc,1778673015.0,14.0,-0.648438,3.84375,-9.957031,,,,,,,,,,
acc,1778673015.0,14.0,-0.574219,3.613281,-9.917969,,,,,,,,,,
acc,1778673015.0,14.0,-0.457031,3.84375,-9.691406,,,,,,,,,,
acc,1778673015.0,14.0,-0.34375,4.1875,-9.574219,,,,,,,,,,
acc,1778673015.0,14.0,-0.265625,3.765625,-9.730469,,,,,,,,,,
acc,1778673015.0,14.0,-0.382812,3.269531,-9.148438,,,,,,,,,,
acc,1778673015.0,14.0,-0.34375,3.117188,-9.914062,,,,,,,,,,
acc,1778673015.0,14.0,-0.457031,3.765625,-9.761719,,,,,,,,,,
acc,1778673015.0,14.0,-0.382812,3.765625,-9.378906,,,,,,,,,,
acc,1778673015.0,14.0,-0.226562,3.308594,-9.914062,,,,,,,,,,
acc,1778673015.0,14.0,-0.152344,3.613281,-9.265625,,,,,,,,,,
acc,1778673015.0,14.0,-0.152344,3.078125,-9.835938,,,,,,,,,,
acc,1778673015.0,14.0,0.078125,3.34375,-9.609375,,,,,,,,,,
acc,1778673015.0,14.0,-0.226562,3.84375,-9.691406,,,,,,,,,,
acc,1778673015.0,14.0,-0.457031,3.613281,-10.21875,,,,,,,,,,
acc,1778673015.0,14.0,-0.152344,3.613281,-9.53125,,,,,,,,,,
acc,1778673015.0,14.0,-0.226562,3.804688,-9.917969,,,,,,,,,,
acc,1778673015.0,14.0,-0.226562,3.691406,-9.839844,,,,,,,,,,
acc,1778673015.0,14.0,-0.035156,3.535156,-9.691406,,,,,,,,,,
acc,1778673015.0,14.0,-0.304688,3.726562,-9.652344,,,,,,,,,,
acc,1778673015.0,14.0,-0.152344,3.460938,-10.03125,,,,,,,,,,
acc,1778673015.0,14.0,-0.113281,3.382812,-9.953125,,,,,,,,,,
acc,1778673015.0,14.0,-0.226562,3.574219,-9.839844,,,,,,,,,,
acc,1778673015.0,14.0,-0.304688,3.535156,-10.179688,,,,,,,,,,
acc,1778673015.0,14.0,-0.265625,3.308594,-9.761719,,,,,,,,,,
acc,1778673015.0,14.0,-0.226562,3.0,-10.074219,,,,,,,,,,
acc,1778673015.0,14.0,-0.226562,3.269531,-9.992188,,,,,,,,,,
acc,1778673015.0,14.0,-0.417969,3.804688,-9.761719,,,,,,,,,,
acc,1778673015.0,14.0,-0.304688,3.535156,-10.113281,,,,,,,,,,
acc,1778673015.0,14.0,-0.074219,3.039062,-9.6875,,,,,,,,,,
acc,1778673015.0,14.0,-0.113281,3.5,-9.800781,,,,,,,,,,
acc,1778673015.0,14.0,-0.382812,3.726562,-9.953125,,,,,,,,,,
acc,1778673015.0,14.0,-0.417969,3.460938,-9.648438,,,,,,,,,,
acc,1778673015.0,14.0,-0.226562,3.84375,-9.835938,,,,,,,,,,
acc,1778673015.0,14.0,-0.191406,3.957031,-9.761719,,,,,,,,,,
acc,1778673015.0,14.0,-0.152344,3.921875,-9.1875,,,,,,,,,,
acc,1778673016.0,15.0,-0.226562,4.148438,-9.570312,,,,,,,,,,
acc,1778673016.0,15.0,-0.265625,3.882812,-9.226562,,,,,,,,,,
acc,1778673016.0,15.0,-0.152344,3.691406,-9.6875,,,,,,,,,,
acc,1778673016.0,15.0,-0.074219,3.804688,-9.191406,,,,,,,,,,
acc,1778673016.0,15.0,-0.113281,3.765625,-9.308594,,,,,,,,,,
acc,1778673016.0,15.0,-0.035156,3.765625,-9.6875,,,,,,,,,,
acc,1778673016.0,15.0,0.0,3.5,-9.375,,,,,,,,,,
acc,1778673016.0,15.0,-0.113281,3.652344,-9.609375,,,,,,,,,,
acc,1778673016.0,15.0,-0.226562,3.996094,-9.691406,,,,,,,,,,
acc,1778673016.0,15.0,-0.226562,4.265625,-9.457031,,,,,,,,,,
acc,1778673016.0,15.0,-0.152344,4.339844,-9.730469,,,,,,,,,,
acc,1778673016.0,15.0,-0.113281,4.035156,-9.914062,,,,,,,,,,
acc,1778673016.0,15.0,-0.265625,3.84375,-9.726562,,,,,,,,,,
acc,1778673016.0,15.0,-0.457031,3.726562,-10.21875,,,,,,,,,,
acc,1778673016.0,15.0,-0.382812,3.34375,-9.648438,,,,,,,,,,
acc,1778673016.0,15.0,-0.191406,3.117188,-10.035156,,,,,,,,,,
acc,1778673016.0,15.0,-0.152344,3.152344,-9.757812,,,,,,,,,,
acc,1778673016.0,15.0,-0.113281,3.691406,-9.957031,,,,,,,,,,
acc,1778673016.0,15.0,-0.382812,3.460938,-9.953125,,,,,,,,,,
acc,1778673016.0,15.0,-0.34375,3.652344,-9.875,,,,,,,,,,
acc,1778673016.0,15.0,-0.304688,3.34375,-10.113281,,,,,,,,,,
acc,1778673016.0,15.0,-0.113281,3.078125,-9.691406,,,,,,,,,,
acc,1778673016.0,15.0,-0.265625,3.613281,-10.152344,,,,,,,,,,
acc,1778673016.0,15.0,-0.304688,3.535156,-9.796875,,,,,,,,,,
acc,1778673016.0,15.0,-0.34375,3.765625,-9.917969,,,,,,,,,,
acc,1778673016.0,15.0,-0.304688,3.652344,-9.652344,,,,,,,,,,
acc,1778673016.0,15.0,-0.191406,3.957031,-9.957031,,,,,,,,,,
acc,1778673016.0,15.0,-0.34375,4.304688,-9.457031,,,,,,,,,,
acc,1778673016.0,15.0,-0.382812,4.035156,-9.835938,,,,,,,,,,
acc,1778673016.0,15.0,-0.34375,4.304688,-9.726562,,,,,,,,,,
acc,1778673016.0,15.0,-0.265625,3.84375,-9.726562,,,,,,,,,,
acc,1778673016.0,15.0,-0.304688,3.691406,-9.914062,,,,,,,,,,
acc,1778673016.0,15.0,-0.152344,3.84375,-9.574219,,,,,,,,,,
acc,1778673016.0,15.0,-0.191406,3.882812,-9.613281,,,,,,,,,,
acc,1778673016.0,15.0,-0.226562,3.882812,-9.835938,,,,,,,,,,
acc,1778673016.0,15.0,-0.113281,3.804688,-9.839844,,,,,,,,,,
acc,1778673016.0,15.0,-0.152344,3.84375,-9.609375,,,,,,,,,,
acc,1778673016.0,15.0,-0.152344,3.574219,-9.652344,,,,,,,,,,
acc,1778673016.0,15.0,-0.074219,3.765625,-9.648438,,,,,,,,,,
acc,1778673016.0,15.0,-0.191406,3.765625,-9.691406,,,,,,,,,,
acc,1778673016.0,15.0,-0.191406,3.535156,-9.796875,,,,,,,,,,
acc,1778673016.0,15.0,-0.265625,3.613281,-9.796875,,,,,,,,,,
acc,1778673016.0,15.0,-0.226562,3.460938,-9.914062,,,,,,,,,,
acc,1778673016.0,15.0,-0.34375,3.152344,-9.730469,,,,,,,,,,
acc,1778673016.0,15.0,-0.382812,3.652344,-9.875,,,,,,,,,,
acc,1778673016.0,15.0,-0.457031,4.035156,-9.835938,,,,,,,,,,
acc,1778673016.0,15.0,-0.417969,4.113281,-9.492188,,,,,,,,,,
acc,1778673016.0,15.0,-0.304688,3.765625,-9.914062,,,,,,,,,,
acc,1778673016.0,15.0,-0.265625,4.113281,-9.761719,,,,,,,,,,
acc,1778673016.0,15.0,-0.304688,3.613281,-9.613281,,,,,,,,,,
acc,1778673016.0,15.0,-0.34375,3.613281,-10.03125,,,,,,,,,,
acc,1778673016.0,15.0,-0.457031,4.148438,-9.6875,,,,,,,,,,
acc,1778673016.0,15.0,-0.152344,3.691406,-9.839844,,,,,,,,,,
acc,1778673016.0,15.0,-0.191406,3.535156,-9.417969,,,,,,,,,,
acc,1778673016.0,15.0,-0.191406,3.574219,-9.953125,,,,,,,,,,
acc,1778673016.0,15.0,-0.152344,3.535156,-9.648438,,,,,,,,,,
acc,1778673016.0,15.0,-0.191406,3.5,-9.796875,,,,,,,,,,
acc,1778673016.0,15.0,-0.304688,3.613281,-9.652344,,,,,,,,,,
acc,1778673016.0,15.0,-0.226562,3.652344,-9.730469,,,,,,,,,,
acc,1778673016.0,15.0,-0.191406,3.726562,-9.6875,,,,,,,,,,
acc,1778673016.0,15.0,-0.152344,3.84375,-9.757812,,,,,,,,,,
acc,1778673016.0,15.0,-0.152344,3.84375,-9.835938,,,,,,,,,,
acc,1778673016.0,15.0,-0.226562,3.957031,-9.492188,,,,,,,,,,
acc,1778673016.0,15.0,-0.34375,4.1875,-9.730469,,,,,,,,,,
acc,1778673016.0,15.0,-0.265625,3.882812,-9.761719,,,,,,,,,,
acc,1778673016.0,15.0,-0.265625,4.035156,-9.417969,,,,,,,,,,
acc,1778673016.0,15.0,-0.191406,4.265625,-9.730469,,,,,,,,,,
acc,1778673016.0,15.0,-0.113281,3.921875,-9.652344,,,,,,,,,,
acc,1778673016.0,15.0,-0.191406,4.035156,-9.613281,,,,,,,,,,
acc,1778673016.0,15.0,-0.265625,4.035156,-9.796875,,,,,,,,,,
acc,1778673016.0,15.0,-0.265625,3.34375,-9.652344,,,,,,,,,,
acc,1778673016.0,15.0,-0.191406,3.652344,-9.796875,,,,,,,,,,
acc,1778673016.0,15.0,-0.226562,3.652344,-9.875,,,,,,,,,,
acc,1778673016.0,15.0,-0.191406,3.152344,-9.726562,,,,,,,,,,
acc,1778673016.0,15.0,-0.226562,3.5,-9.730469,,,,,,,,,,
acc,1778673016.0,15.0,-0.152344,3.34375,-9.992188,,,,,,,,,,
acc,1778673016.0,15.0,-0.113281,3.421875,-9.535156,,,,,,,,,,
acc,1778673016.0,15.0,-0.226562,3.191406,-10.035156,,,,,,,,,,
acc,1778673016.0,15.0,-0.191406,3.117188,-9.761719,,,,,,,,,,
acc,1778673016.0,15.0,-0.191406,3.535156,-9.535156,,,,,,,,,,
acc,1778673016.0,15.0,-0.074219,3.765625,-9.835938,,,,,,,,,,
acc,1778673016.0,15.0,0.039062,4.304688,-9.457031,,,,,,,,,,
acc,1778673016.0,15.0,-0.152344,4.226562,-9.304688,,,,,,,,,,
acc,1778673016.0,15.0,-0.226562,3.652344,-9.875,,,,,,,,,,
acc,1778673016.0,15.0,-0.152344,3.921875,-9.535156,,,,,,,,,,
acc,1778673016.0,15.0,-0.191406,3.996094,-9.457031,,,,,,,,,,
acc,1778673016.0,15.0,-0.113281,4.226562,-9.875,,,,,,,,,,
acc,1778673016.0,15.0,-0.113281,4.304688,-9.417969,,,,,,,,,,
acc,1778673016.0,15.0,-0.226562,4.417969,-9.800781,,,,,,,,,,
acc,1778673016.0,15.0,-0.457031,3.726562,-9.730469,,,,,,,,,,
acc,1778673016.0,15.0,-0.113281,3.191406,-10.070312,,,,,,,,,,
acc,1778673016.0,15.0,-0.035156,3.269531,-9.453125,,,,,,,,,,
acc,1778673016.0,15.0,-0.074219,3.726562,-10.152344,,,,,,,,,,
acc,1778673016.0,15.0,-0.074219,3.652344,-9.996094,,,,,,,,,,
acc,1778673016.0,15.0,0.0,3.308594,-9.375,,,,,,,,,,
acc,1778673016.0,15.0,-0.152344,3.574219,-10.070312,,,,,,,,,,
acc,1778673016.0,15.0,-0.113281,3.191406,-9.6875,,,,,,,,,,
acc,1778673016.0,15.0,0.15625,3.230469,-9.796875,,,,,,,,,,
acc,1778673016.0,15.0,0.039062,3.039062,-10.03125,,,,,,,,,,
acc,1778673016.0,15.0,-0.035156,3.230469,-9.839844,,,,,,,,,,
acc,1778673016.0,15.0,0.078125,3.421875,-9.839844,,,,,,,,,,
acc,1778673016.0,15.0,0.15625,3.308594,-9.757812,,,,,,,,,,
acc,1778673016.0,15.0,0.078125,3.691406,-9.613281,,,,,,,,,,
acc,1778673016.0,15.0,-0.191406,3.382812,-10.113281,,,,,,,,,,
acc,1778673016.0,15.0,-0.265625,3.460938,-9.761719,,,,,,,,,,
acc,1778673016.0,15.0,-0.304688,3.996094,-9.839844,,,,,,,,,,
acc,1778673016.0,15.0,-0.226562,3.691406,-9.839844,,,,,,,,,,
acc,1778673016.0,15.0,-0.074219,3.691406,-9.757812,,,,,,,,,,
acc,1778673016.0,15.0,-0.191406,3.613281,-9.652344,,,,,,,,,,
acc,1778673016.0,15.0,-0.226562,3.613281,-9.757812,,,,,,,,,,
acc,1778673016.0,15.0,-0.226562,4.074219,-9.652344,,,,,,,,,,
acc,1778673016.0,15.0,-0.34375,3.996094,-9.691406,,,,,,,,,,
acc,1778673016.0,15.0,-0.382812,3.804688,-9.726562,,,,,,,,,,
acc,1778673016.0,15.0,-0.457031,4.074219,-9.496094,,,,,,,,,,
acc,1778673016.0,15.0,-0.34375,3.957031,-9.757812,,,,,,,,,,
acc,1778673016.0,15.0,-0.265625,3.421875,-9.53125,,,,,,,,,,
acc,1778673016.0,15.0,-0.496094,3.957031,-9.574219,,,,,,,,,,
acc,1778673016.0,15.0,-0.648438,3.957031,-9.796875,,,,,,,,,,
acc,1778673016.0,15.0,-0.457031,3.765625,-9.652344,,,,,,,,,,
acc,1778673016.0,15.0,-0.382812,3.882812,-9.53125,,,,,,,,,,
acc,1778673016.0,15.0,-0.382812,3.726562,-9.835938,,,,,,,,,,
acc,1778673016.0,15.0,-0.265625,3.652344,-9.496094,,,,,,,,,,
acc,1778673016.0,15.0,-0.382812,4.1875,-9.648438,,,,,,,,,,
acc,1778673016.0,15.0,-0.34375,4.1875,-9.414062,,,,,,,,,,
acc,1778673016.0,15.0,-0.304688,4.148438,-9.347656,,,,,,,,,,
acc,1778673016.0,15.0,-0.382812,4.1875,-9.730469,,,,,,,,,,
acc,1778673016.0,15.0,-0.417969,3.574219,-9.796875,,,,,,,,,,
acc,1778673016.0,15.0,-0.382812,3.535156,-9.914062,,,,,,,,,,
acc,1778673017.0,16.0,-0.226562,3.5,-10.074219,,,,,,,,,,
acc,1778673017.0,16.0,-0.226562,3.652344,-9.914062,,,,,,,,,,
acc,1778673017.0,16.0,-0.417969,3.269531,-9.730469,,,,,,,,,,
acc,1778673017.0,16.0,-0.191406,3.078125,-10.296875,,,,,,,,,,
acc,1778673017.0,16.0,-0.074219,3.535156,-9.839844,,,,,,,,,,
acc,1778673017.0,16.0,-0.191406,3.382812,-9.878906,,,,,,,,,,
acc,1778673017.0,16.0,-0.191406,3.382812,-10.417969,,,,,,,,,,
acc,1778673017.0,16.0,-0.074219,3.382812,-9.570312,,,,,,,,,,
acc,1778673017.0,16.0,-0.152344,3.308594,-10.53125,,,,,,,,,,
acc,1778673017.0,16.0,-0.074219,3.421875,-9.953125,,,,,,,,,,
acc,1778673017.0,16.0,-0.152344,3.652344,-9.800781,,,,,,,,,,
acc,1778673017.0,16.0,-0.417969,4.035156,-9.914062,,,,,,,,,,
acc,1778673017.0,16.0,-0.265625,4.226562,-9.378906,,,,,,,,,,
acc,1778673017.0,16.0,-0.074219,4.378906,-9.761719,,,,,,,,,,
acc,1778673017.0,16.0,-0.035156,3.996094,-9.304688,,,,,,,,,,
acc,1778673017.0,16.0,-0.113281,3.765625,-9.839844,,,,,,,,,,
acc,1778673017.0,16.0,-0.191406,3.84375,-9.796875,,,,,,,,,,
acc,1778673017.0,16.0,-0.074219,3.957031,-9.457031,,,,,,,,,,
acc,1778673017.0,16.0,0.0,4.417969,-10.074219,,,,,,,,,,
acc,1778673017.0,16.0,0.039062,4.148438,-9.726562,,,,,,,,,,
acc,1778673017.0,16.0,-0.074219,4.226562,-9.457031,,,,,,,,,,
acc,1778673017.0,16.0,-0.074219,4.035156,-9.652344,,,,,,,,,,
acc,1778673017.0,16.0,0.078125,3.921875,-9.269531,,,,,,,,,,
acc,1778673017.0,16.0,0.308594,3.652344,-9.609375,,,,,,,,,,
acc,1778673017.0,16.0,0.230469,3.691406,-9.414062,,,,,,,,,,
acc,1778673017.0,16.0,0.117188,3.726562,-9.375,,,,,,,,,,
acc,1778673017.0,16.0,0.117188,3.921875,-9.496094,,,,,,,,,,
acc,1778673017.0,16.0,0.078125,4.148438,-9.570312,,,,,,,,,,
acc,1778673017.0,16.0,0.191406,3.652344,-9.570312,,,,,,,,,,
acc,1778673017.0,16.0,0.078125,3.574219,-9.457031,,,,,,,,,,
acc,1778673017.0,16.0,0.078125,3.382812,-9.875,,,,,,,,,,
acc,1778673017.0,16.0,0.230469,3.613281,-9.839844,,,,,,,,,,
acc,1778673017.0,16.0,0.117188,3.652344,-9.453125,,,,,,,,,,
acc,1778673017.0,16.0,0.078125,3.308594,-10.183594,,,,,,,,,,
acc,1778673017.0,16.0,-0.113281,3.34375,-9.265625,,,,,,,,,,
acc,1778673017.0,16.0,-0.113281,3.191406,-9.878906,,,,,,,,,,
acc,1778673017.0,16.0,0.039062,3.191406,-9.839844,,,,,,,,,,
acc,1778673017.0,16.0,0.039062,3.5,-9.648438,,,,,,,,,,
acc,1778673017.0,16.0,-0.113281,3.574219,-10.296875,,,,,,,,,,
acc,1778673017.0,16.0,-0.304688,3.652344,-9.6875,,,,,,,,,,
acc,1778673017.0,16.0,-0.152344,3.574219,-10.035156,,,,,,,,,,
acc,1778673017.0,16.0,-0.226562,3.421875,-9.917969,,,,,,,,,,
acc,1778673017.0,16.0,-0.457031,3.921875,-9.726562,,,,,,,,,,
acc,1778673017.0,16.0,-0.382812,4.113281,-10.335938,,,,,,,,,,
acc,1778673017.0,16.0,-0.226562,4.417969,-9.875,,,,,,,,,,
acc,1778673017.0,16.0,-0.304688,4.457031,-9.6875,,,,,,,,,,
acc,1778673017.0,16.0,-0.382812,4.496094,-9.992188,,,,,,,,,,
acc,1778673017.0,16.0,-0.265625,4.800781,-9.347656,,,,,,,,,,
acc,1778673017.0,16.0,-0.152344,4.035156,-9.691406,,,,,,,,,,
acc,1778673017.0,16.0,-0.035156,3.34375,-9.609375,,,,,,,,,,
acc,1778673017.0,16.0,-0.152344,3.957031,-9.609375,,,,,,,,,,
acc,1778673017.0,16.0,-0.265625,4.074219,-9.800781,,,,,,,,,,
acc,1778673017.0,16.0,-0.152344,4.304688,-9.726562,,,,,,,,,,
acc,1778673017.0,16.0,-0.113281,4.304688,-9.957031,,,,,,,,,,
acc,1778673017.0,16.0,-0.265625,4.113281,-9.878906,,,,,,,,,,
acc,1778673017.0,16.0,-0.113281,3.921875,-9.796875,,,,,,,,,,
acc,1778673017.0,16.0,0.0,3.691406,-9.652344,,,,,,,,,,
acc,1778673017.0,16.0,0.078125,3.191406,-9.761719,,,,,,,,,,
acc,1778673017.0,16.0,0.039062,3.269531,-9.875,,,,,,,,,,
acc,1778673017.0,16.0,-0.226562,3.191406,-9.878906,,,,,,,,,,
acc,1778673017.0,16.0,-0.265625,3.039062,-9.917969,,,,,,,,,,
acc,1778673017.0,16.0,-0.191406,3.152344,-10.152344,,,,,,,,,,
acc,1778673017.0,16.0,0.0,3.152344,-9.953125,,,,,,,,,,
acc,1778673017.0,16.0,-0.074219,3.613281,-9.917969,,,,,,,,,,
acc,1778673017.0,16.0,-0.113281,3.652344,-9.953125,,,,,,,,,,
acc,1778673017.0,16.0,-0.152344,3.765625,-9.917969,,,,,,,,,,
acc,1778673017.0,16.0,-0.152344,3.804688,-10.113281,,,,,,,,,,
acc,1778673017.0,16.0,-0.226562,3.574219,-9.878906,,,,,,,,,,
acc,1778673017.0,16.0,-0.417969,3.882812,-10.03125,,,,,,,,,,
acc,1778673017.0,16.0,-0.226562,4.148438,-10.339844,,,,,,,,,,
acc,1778673017.0,16.0,-0.191406,3.421875,-9.609375,,,,,,,,,,
acc,1778673017.0,16.0,0.0,3.726562,-10.109375,,,,,,,,,,
acc,1778673017.0,16.0,0.078125,3.765625,-10.152344,,,,,,,,,,
acc,1778673017.0,16.0,-0.074219,3.882812,-9.878906,,,,,,,,,,
acc,1778673017.0,16.0,-0.265625,3.882812,-10.339844,,,,,,,,,,
acc,1778673017.0,16.0,-0.265625,3.996094,-10.035156,,,,,,,,,,
acc,1778673017.0,16.0,-0.226562,4.074219,-9.957031,,,,,,,,,,
acc,1778673017.0,16.0,-0.152344,3.84375,-10.300781,,,,,,,,,,
acc,1778673017.0,16.0,-0.152344,3.765625,-9.378906,,,,,,,,,,
acc,1778673017.0,16.0,-0.152344,4.1875,-9.992188,,,,,,,,,,
acc,1778673017.0,16.0,-0.074219,4.113281,-9.839844,,,,,,,,,,
acc,1778673017.0,16.0,-0.191406,4.378906,-9.570312,,,,,,,,,,
acc,1778673017.0,16.0,-0.191406,4.304688,-10.21875,,,,,,,,,,
acc,1778673017.0,16.0,-0.113281,4.035156,-9.730469,,,,,,,,,,
acc,1778673017.0,16.0,-0.035156,4.1875,-10.03125,,,,,,,,,,
acc,1778673017.0,16.0,0.039062,3.996094,-9.574219,,,,,,,,,,
acc,1778673017.0,16.0,0.0,3.269531,-9.875,,,,,,,,,,
acc,1778673017.0,16.0,0.039062,3.421875,-9.917969,,,,,,,,,,
acc,1778673017.0,16.0,-0.074219,3.421875,-10.109375,,,,,,,,,,
acc,1778673017.0,16.0,-0.152344,3.117188,-9.875,,,,,,,,,,
acc,1778673017.0,16.0,-0.191406,3.996094,-9.917969,,,,,,,,,,
acc,1778673017.0,16.0,-0.191406,3.765625,-9.875,,,,,,,,,,
acc,1778673017.0,16.0,-0.113281,3.765625,-9.917969,,,,,,,,,,
acc,1778673017.0,16.0,-0.152344,3.421875,-9.570312,,,,,,,,,,
acc,1778673017.0,16.0,-0.152344,2.65625,-9.914062,,,,,,,,,,
acc,1778673017.0,16.0,-0.113281,3.269531,-9.800781,,,,,,,,,,
acc,1778673017.0,16.0,-0.265625,3.382812,-9.878906,,,,,,,,,,
acc,1778673017.0,16.0,-0.152344,3.613281,-10.03125,,,,,,,,,,
acc,1778673017.0,16.0,-0.152344,4.074219,-9.761719,,,,,,,,,,
acc,1778673017.0,16.0,-0.191406,4.074219,-10.148438,,,,,,,,,,
acc,1778673017.0,16.0,-0.191406,3.921875,-9.800781,,,,,,,,,,
acc,1778673017.0,16.0,-0.226562,3.804688,-9.957031,,,,,,,,,,
acc,1778673017.0,16.0,-0.34375,3.613281,-10.109375,,,,,,,,,,
acc,1778673017.0,16.0,-0.304688,3.34375,-9.761719,,,,,,,,,,
acc,1778673017.0,16.0,-0.191406,3.574219,-9.992188,,,,,,,,,,
acc,1778673017.0,16.0,-0.265625,3.691406,-9.648438,,,,,,,,,,
acc,1778673017.0,16.0,-0.382812,3.882812,-9.757812,,,,,,,,,,
acc,1778673017.0,16.0,-0.34375,3.957031,-10.21875,,,,,,,,,,
acc,1778673017.0,16.0,-0.34375,4.035156,-9.875,,,,,,,,,,
acc,1778673017.0,16.0,-0.496094,4.148438,-10.035156,,,,,,,,,,
acc,1778673017.0,16.0,-0.417969,3.921875,-10.152344,,,,,,,,,,
acc,1778673017.0,16.0,-0.265625,4.074219,-9.800781,,,,,,,,,,
acc,1778673017.0,16.0,-0.265625,3.652344,-9.917969,,,,,,,,,,
acc,1778673017.0,16.0,0.0,3.460938,-9.835938,,,,,,,,,,
acc,1778673017.0,16.0,-0.226562,3.574219,-9.496094,,,,,,,,,,
acc,1778673017.0,16.0,-0.417969,4.035156,-9.757812,,,,,,,,,,
acc,1778673017.0,16.0,-0.34375,3.535156,-9.953125,,,,,,,,,,
acc,1778673017.0,16.0,-0.191406,3.382812,-9.878906,,,,,,,,,,
acc,1778673017.0,16.0,-0.265625,3.5,-9.726562,,,,,,,,,,
acc,1778673017.0,16.0,-0.382812,3.421875,-10.179688,,,,,,,,,,
acc,1778673017.0,16.0,-0.457031,3.269531,-9.691406,,,,,,,,,,
acc,1778673017.0,16.0,-0.535156,3.84375,-9.953125,,,,,,,,,,
acc,1778673017.0,16.0,-0.457031,3.382812,-9.992188,,,,,,,,,,
acc,1778673017.0,16.0,-0.265625,3.5,-9.726562,,,,,,,,,,
acc,1778673017.0,16.0,-0.457031,3.613281,-9.953125,,,,,,,,,,
acc,1778673017.0,16.0,-0.496094,3.765625,-9.796875,,,,,,,,,,
acc,1778673017.0,16.0,-0.382812,4.148438,-9.726562,,,,,,,,,,
acc,1778673017.0,16.0,-0.382812,3.957031,-9.53125,,,,,,,,,,
acc,1778673018.0,17.0,-0.304688,3.921875,-9.953125,,,,,,,,,,
acc,1778673018.0,17.0,-0.382812,3.957031,-9.648438,,,,,,,,,,
acc,1778673018.0,17.0,-0.457031,3.535156,-9.800781,,,,,,,,,,
acc,1778673018.0,17.0,-0.417969,3.691406,-9.878906,,,,,,,,,,
acc,1778673018.0,17.0,-0.382812,3.921875,-9.957031,,,,,,,,,,
acc,1778673018.0,17.0,-0.457031,3.652344,-9.835938,,,,,,,,,,
acc,1778673018.0,17.0,-0.417969,3.5,-9.835938,,,,,,,,,,
acc,1778673018.0,17.0,-0.34375,3.613281,-9.800781,,,,,,,,,,
acc,1778673018.0,17.0,-0.226562,3.613281,-9.730469,,,,,,,,,,
acc,1778673018.0,17.0,-0.226562,3.382812,-9.53125,,,,,,,,,,
acc,1778673018.0,17.0,-0.152344,3.308594,-9.953125,,,,,,,,,,
acc,1778673018.0,17.0,-0.191406,3.34375,-9.570312,,,,,,,,,,
acc,1778673018.0,17.0,-0.34375,3.382812,-9.835938,,,,,,,,,,
acc,1778673018.0,17.0,-0.191406,3.5,-9.996094,,,,,,,,,,
acc,1778673018.0,17.0,-0.152344,3.574219,-9.496094,,,,,,,,,,
acc,1778673018.0,17.0,-0.191406,3.726562,-9.796875,,,,,,,,,,
acc,1778673018.0,17.0,-0.113281,3.613281,-9.648438,,,,,,,,,,
acc,1778673018.0,17.0,-0.191406,3.117188,-9.726562,,,,,,,,,,
acc,1778673018.0,17.0,-0.074219,3.535156,-9.878906,,,,,,,,,,
acc,1778673018.0,17.0,-0.035156,3.613281,-9.648438,,,,,,,,,,
acc,1778673018.0,17.0,0.039062,3.269531,-9.875,,,,,,,,,,
acc,1778673018.0,17.0,0.078125,3.191406,-9.726562,,,,,,,,,,
acc,1778673018.0,17.0,0.117188,3.230469,-9.6875,,,,,,,,,,
acc,1778673018.0,17.0,0.078125,3.613281,-9.691406,,,,,,,,,,
acc,1778673018.0,17.0,0.078125,3.5,-9.835938,,,,,,,,,,
acc,1778673018.0,17.0,-0.152344,3.691406,-9.726562,,,,,,,,,,
acc,1778673018.0,17.0,-0.113281,3.5,-9.835938,,,,,,,,,,
acc,1778673018.0,17.0,0.0,3.421875,-9.6875,,,,,,,,,,
acc,1778673018.0,17.0,-0.035156,3.921875,-9.570312,,,,,,,,,,
acc,1778673018.0,17.0,-0.074219,4.035156,-9.726562,,,,,,,,,,
acc,1778673018.0,17.0,-0.074219,4.148438,-9.609375,,,,,,,,,,
acc,1778673018.0,17.0,-0.191406,3.882812,-9.496094,,,,,,,,,,
acc,1778673018.0,17.0,-0.304688,3.804688,-9.800781,,,,,,,,,,
acc,1778673018.0,17.0,-0.34375,4.035156,-9.347656,,,,,,,,,,
acc,1778673018.0,17.0,-0.226562,4.074219,-9.652344,,,,,,,,,,
acc,1778673018.0,17.0,-0.191406,3.882812,-9.652344,,,,,,,,,,
acc,1778673018.0,17.0,-0.113281,4.074219,-9.378906,,,,,,,,,,
acc,1778673018.0,17.0,-0.265625,3.957031,-9.6875,,,,,,,,,,
acc,1778673018.0,17.0,-0.265625,3.957031,-9.378906,,,,,,,,,,
acc,1778673018.0,17.0,-0.457031,4.113281,-9.304688,,,,,,,,,,
acc,1778673018.0,17.0,-0.417969,3.957031,-9.691406,,,,,,,,,,
acc,1778673018.0,17.0,-0.265625,4.074219,-9.574219,,,,,,,,,,
acc,1778673018.0,17.0,-0.382812,4.226562,-9.609375,,,,,,,,,,
acc,1778673018.0,17.0,-0.304688,3.882812,-9.652344,,,,,,,,,,
acc,1778673018.0,17.0,-0.191406,3.84375,-9.535156,,,,,,,,,,
acc,1778673018.0,17.0,-0.226562,3.5,-9.453125,,,,,,,,,,
acc,1778673018.0,17.0,-0.191406,3.34375,-9.652344,,,,,,,,,,
acc,1778673018.0,17.0,-0.152344,3.34375,-9.609375,,,,,,,,,,
acc,1778673018.0,17.0,-0.226562,3.34375,-9.53125,,,,,,,,,,
acc,1778673018.0,17.0,-0.265625,3.535156,-9.761719,,,,,,,,,,
acc,1778673018.0,17.0,-0.152344,3.84375,-9.835938,,,,,,,,,,
acc,1778673018.0,17.0,-0.152344,4.074219,-9.6875,,,,,,,,,,
acc,1778673018.0,17.0,-0.191406,3.382812,-9.839844,,,,,,,,,,
acc,1778673018.0,17.0,-0.191406,3.535156,-9.726562,,,,,,,,,,
acc,1778673018.0,17.0,-0.265625,3.726562,-9.957031,,,,,,,,,,
acc,1778673018.0,17.0,-0.226562,3.652344,-10.03125,,,,,,,,,,
acc,1778673018.0,17.0,-0.152344,4.113281,-9.914062,,,,,,,,,,
acc,1778673018.0,17.0,-0.113281,3.921875,-10.113281,,,,,,,,,,
acc,1778673018.0,17.0,-0.191406,3.804688,-10.03125,,,,,,,,,,
acc,1778673018.0,17.0,-0.074219,3.804688,-10.03125,,,,,,,,,,
acc,1778673018.0,17.0,-0.113281,3.574219,-10.070312,,,,,,,,,,
acc,1778673018.0,17.0,-0.035156,3.535156,-9.992188,,,,,,,,,,
acc,1778673018.0,17.0,-0.035156,3.691406,-9.957031,,,,,,,,,,
acc,1778673018.0,17.0,0.117188,3.84375,-10.03125,,,,,,,,,,
acc,1778673018.0,17.0,0.117188,3.882812,-9.800781,,,,,,,,,,
acc,1778673018.0,17.0,0.15625,3.765625,-10.070312,,,,,,,,,,
acc,1778673018.0,17.0,0.15625,3.765625,-9.796875,,,,,,,,,,
acc,1778673018.0,17.0,0.078125,3.765625,-9.726562,,,,,,,,,,
acc,1778673018.0,17.0,0.191406,4.035156,-10.222656,,,,,,,,,,
acc,1778673018.0,17.0,0.308594,4.265625,-9.34375,,,,,,,,,,
acc,1778673018.0,17.0,0.039062,4.496094,-10.074219,,,,,,,,,,
acc,1778673018.0,17.0,0.0,3.882812,-9.757812,,,,,,,,,,
acc,1778673018.0,17.0,0.117188,3.535156,-9.574219,,,,,,,,,,
acc,1778673018.0,17.0,0.078125,3.652344,-10.03125,,,,,,,,,,
acc,1778673018.0,17.0,0.191406,3.34375,-9.308594,,,,,,,,,,
acc,1778673018.0,17.0,0.117188,3.726562,-9.609375,,,,,,,,,,
acc,1778673018.0,17.0,-0.035156,3.84375,-9.492188,,,,,,,,,,
acc,1778673018.0,17.0,0.039062,3.84375,-9.757812,,,,,,,,,,
acc,1778673018.0,17.0,0.078125,3.726562,-9.609375,,,,,,,,,,
acc,1778673018.0,17.0,-0.035156,3.574219,-9.796875,,,,,,,,,,
acc,1778673018.0,17.0,-0.152344,3.804688,-9.726562,,,,,,,,,,
acc,1778673018.0,17.0,0.0,3.957031,-9.992188,,,,,,,,,,
acc,1778673018.0,17.0,0.078125,4.035156,-9.875,,,,,,,,,,
acc,1778673018.0,17.0,-0.074219,4.113281,-9.761719,,,,,,,,,,
acc,1778673018.0,17.0,-0.152344,4.113281,-9.953125,,,,,,,,,,
acc,1778673018.0,17.0,-0.191406,4.1875,-9.726562,,,,,,,,,,
acc,1778673018.0,17.0,-0.226562,4.148438,-9.6875,,,,,,,,,,
acc,1778673018.0,17.0,-0.226562,4.148438,-9.957031,,,,,,,,,,
acc,1778673018.0,17.0,-0.226562,3.996094,-9.757812,,,,,,,,,,
acc,1778673018.0,17.0,-0.34375,3.921875,-9.957031,,,,,,,,,,
acc,1778673018.0,17.0,-0.34375,3.5,-9.875,,,,,,,,,,
acc,1778673018.0,17.0,-0.304688,3.726562,-9.917969,,,,,,,,,,
acc,1778673018.0,17.0,-0.535156,3.957031,-9.835938,,,,,,,,,,
acc,1778673018.0,17.0,-0.613281,3.921875,-9.878906,,,,,,,,,,
acc,1778673018.0,17.0,-0.535156,3.804688,-9.996094,,,,,,,,,,
acc,1778673018.0,17.0,-0.574219,3.804688,-9.835938,,,,,,,,,,
acc,1778673018.0,17.0,-0.648438,3.535156,-10.113281,,,,,,,,,,
acc,1778673018.0,17.0,-0.613281,3.765625,-10.113281,,,,,,,,,,
acc,1778673018.0,17.0,-0.6875,3.613281,-9.875,,,,,,,,,,
acc,1778673018.0,17.0,-0.535156,3.460938,-10.257812,,,,,,,,,,
acc,1778673018.0,17.0,-0.574219,3.574219,-9.800781,,,,,,,,,,
acc,1778673018.0,17.0,-0.6875,3.5,-9.992188,,,,,,,,,,
acc,1778673018.0,17.0,-0.726562,3.804688,-9.917969,,,,,,,,,,
acc,1778673018.0,17.0,-0.535156,3.726562,-10.03125,,,,,,,,,,
acc,1778673018.0,17.0,-0.535156,3.574219,-9.996094,,,,,,,,,,
acc,1778673018.0,17.0,-0.457031,3.613281,-9.992188,,,,,,,,,,
acc,1778673018.0,17.0,-0.34375,3.652344,-10.109375,,,,,,,,,,
acc,1778673018.0,17.0,-0.265625,3.652344,-9.761719,,,,,,,,,,
acc,1778673018.0,17.0,-0.226562,3.613281,-10.148438,,,,,,,,,,
acc,1778673018.0,17.0,-0.226562,3.691406,-9.839844,,,,,,,,,,
acc,1778673018.0,17.0,-0.191406,3.421875,-9.730469,,,,,,,,,,
acc,1778673018.0,17.0,-0.113281,3.191406,-9.996094,,,,,,,,,,
acc,1778673018.0,17.0,-0.152344,3.535156,-9.757812,,,,,,,,,,
acc,1778673018.0,17.0,-0.113281,3.269531,-10.074219,,,,,,,,,,
acc,1778673018.0,17.0,-0.152344,3.308594,-9.875,,,,,,,,,,
acc,1778673018.0,17.0,-0.074219,3.535156,-9.917969,,,,,,,,,,
acc,1778673018.0,17.0,-0.074219,3.460938,-10.179688,,,,,,,,,,
acc,1778673018.0,17.0,-0.191406,3.691406,-9.875,,,,,,,,,,
acc,1778673018.0,17.0,-0.265625,3.421875,-10.148438,,,,,,,,,,
acc,1778673018.0,17.0,-0.191406,3.269531,-10.113281,,,,,,,,,,
acc,1778673018.0,17.0,-0.304688,3.996094,-9.6875,,,,,,,,,,
acc,1778673018.0,17.0,-0.34375,3.996094,-10.257812,,,,,,,,,,
acc,1778673018.0,17.0,-0.226562,3.921875,-9.457031,,,,,,,,,,
acc,1778673018.0,17.0,-0.113281,4.1875,-10.03125,,,,,,,,,,
acc,1778673018.0,17.0,-0.074219,3.996094,-9.6875,,,,,,,,,,
acc,1778673018.0,17.0,0.0,3.765625,-9.761719,,,,,,,,,,
acc,1778673018.0,17.0,-0.113281,3.652344,-9.992188,,,,,,,,,,
acc,1778673018.0,17.0,-0.191406,3.230469,-9.691406,,,,,,,,,,
acc,1778673018.0,17.0,-0.074219,3.652344,-9.878906,,,,,,,,,,
acc,1778673018.0,17.0,0.039062,3.921875,-9.535156,,,,,,,,,,
acc,1778673019.0,18.0,0.117188,3.691406,-9.34375,,,,,,,,,,
acc,1778673019.0,18.0,0.078125,3.84375,-9.648438,,,,,,,,,,
acc,1778673019.0,18.0,0.0,3.535156,-9.453125,,,,,,,,,,
acc,1778673019.0,18.0,0.0,3.421875,-9.796875,,,,,,,,,,
acc,1778673019.0,18.0,-0.113281,3.84375,-9.992188,,,,,,,,,,
acc,1778673019.0,18.0,-0.074219,3.726562,-9.113281,,,,,,,,,,
acc,1778673019.0,18.0,0.039062,4.148438,-9.726562,,,,,,,,,,
acc,1778673019.0,18.0,-0.152344,4.53125,-9.417969,,,,,,,,,,
acc,1778673019.0,18.0,-0.304688,4.648438,-9.414062,,,,,,,,,,
acc,1778673019.0,18.0,-0.152344,4.378906,-9.875,,,,,,,,,,
acc,1778673019.0,18.0,-0.226562,4.226562,-9.414062,,,,,,,,,,
acc,1778673019.0,18.0,-0.265625,4.304688,-9.730469,,,,,,,,,,
acc,1778673019.0,18.0,-0.226562,3.882812,-9.648438,,,,,,,,,,
acc,1778673019.0,18.0,-0.152344,3.882812,-9.574219,,,,,,,,,,
acc,1778673019.0,18.0,-0.074219,3.382812,-9.652344,,,,,,,,,,
acc,1778673019.0,18.0,-0.191406,3.0,-9.878906,,,,,,,,,,
acc,1778673019.0,18.0,-0.113281,3.230469,-9.839844,,,,,,,,,,
acc,1778673019.0,18.0,-0.265625,3.230469,-9.757812,,,,,,,,,,
acc,1778673019.0,18.0,-0.34375,3.308594,-10.148438,,,,,,,,,,
acc,1778673019.0,18.0,-0.382812,3.421875,-9.839844,,,,,,,,,,
acc,1778673019.0,18.0,-0.457031,3.152344,-9.914062,,,,,,,,,,
acc,1778673019.0,18.0,-0.496094,3.460938,-9.800781,,,,,,,,,,
acc,1778673019.0,18.0,-0.417969,3.421875,-9.917969,,,,,,,,,,
acc,1778673019.0,18.0,-0.34375,3.269531,-9.835938,,,,,,,,,,
acc,1778673019.0,18.0,-0.265625,3.460938,-9.6875,,,,,,,,,,
acc,1778673019.0,18.0,-0.265625,3.652344,-9.917969,,,,,,,,,,
acc,1778673019.0,18.0,-0.191406,4.1875,-9.378906,,,,,,,,,,
acc,1778673019.0,18.0,-0.265625,4.761719,-9.6875,,,,,,,,,,
acc,1778673019.0,18.0,-0.226562,4.339844,-9.609375,,,,,,,,,,
acc,1778673019.0,18.0,-0.074219,4.226562,-9.796875,,,,,,,,,,
acc,1778673019.0,18.0,-0.191406,3.804688,-9.800781,,,,,,,,,,
acc,1778673019.0,18.0,-0.113281,3.460938,-10.148438,,,,,,,,,,
acc,1778673019.0,18.0,-0.035156,3.804688,-9.839844,,,,,,,,,,
acc,1778673019.0,18.0,-0.113281,3.613281,-10.03125,,,,,,,,,,
acc,1778673019.0,18.0,-0.191406,3.652344,-9.917969,,,,,,,,,,
acc,1778673019.0,18.0,-0.304688,3.996094,-9.917969,,,,,,,,,,
acc,1778673019.0,18.0,-0.34375,3.996094,-10.148438,,,,,,,,,,
acc,1778673019.0,18.0,-0.035156,3.652344,-9.875,,,,,,,,,,
acc,1778673019.0,18.0,0.0,3.5,-10.183594,,,,,,,,,,
acc,1778673019.0,18.0,-0.113281,3.5,-9.835938,,,,,,,,,,
acc,1778673019.0,18.0,-0.074219,3.652344,-9.996094,,,,,,,,,,
acc,1778673019.0,18.0,0.0,4.226562,-10.148438,,,,,,,,,,
acc,1778673019.0,18.0,0.039062,4.226562,-9.691406,,,,,,,,,,
acc,1778673019.0,18.0,-0.035156,4.226562,-9.800781,,,,,,,,,,
acc,1778673019.0,18.0,-0.113281,4.339844,-9.691406,,,,,,,,,,
acc,1778673019.0,18.0,-0.074219,3.574219,-9.691406,,,,,,,,,,
acc,1778673019.0,18.0,0.15625,3.421875,-9.878906,,,,,,,,,,
acc,1778673019.0,18.0,0.039062,3.382812,-9.691406,,,,,,,,,,
acc,1778673019.0,18.0,-0.113281,3.535156,-9.914062,,,,,,,,,,
acc,1778673019.0,18.0,-0.035156,3.804688,-10.035156,,,,,,,,,,
acc,1778673019.0,18.0,-0.035156,3.574219,-9.726562,,,,,,,,,,
acc,1778673019.0,18.0,0.078125,3.34375,-10.21875,,,,,,,,,,
acc,1778673019.0,18.0,-0.035156,3.421875,-9.6875,,,,,,,,,,
acc,1778673019.0,18.0,-0.191406,3.535156,-10.222656,,,,,,,,,,
acc,1778673019.0,18.0,-0.113281,3.574219,-9.796875,,,,,,,,,,
acc,1778673019.0,18.0,-0.265625,3.691406,-9.574219,,,,,,,,,,
acc,1778673019.0,18.0,-0.113281,3.996094,-10.03125,,,,,,,,,,
acc,1778673019.0,18.0,0.039062,4.035156,-9.453125,,,,,,,,,,
acc,1778673019.0,18.0,-0.074219,3.765625,-9.730469,,,,,,,,,,
acc,1778673019.0,18.0,-0.152344,3.382812,-9.691406,,,,,,,,,,
acc,1778673019.0,18.0,-0.074219,3.382812,-10.113281,,,,,,,,,,
acc,1778673019.0,18.0,-0.113281,3.5,-9.800781,,,,,,,,,,
acc,1778673019.0,18.0,-0.304688,3.691406,-10.109375,,,,,,,,,,
acc,1778673019.0,18.0,-0.457031,3.84375,-9.691406,,,,,,,,,,
acc,1778673019.0,18.0,-0.535156,4.035156,-9.875,,,,,,,,,,
acc,1778673019.0,18.0,-0.382812,3.765625,-9.839844,,,,,,,,,,
acc,1778673019.0,18.0,-0.34375,3.5,-10.03125,,,,,,,,,,
acc,1778673019.0,18.0,-0.457031,3.34375,-9.914062,,,,,,,,,,
acc,1778673019.0,18.0,-0.457031,3.921875,-9.996094,,,,,,,,,,
acc,1778673019.0,18.0,-0.265625,3.804688,-9.648438,,,,,,,,,,
acc,1778673019.0,18.0,-0.34375,4.1875,-9.648438,,,,,,,,,,
acc,1778673019.0,18.0,-0.382812,4.457031,-9.875,,,,,,,,,,
acc,1778673019.0,18.0,-0.417969,4.304688,-9.917969,,,,,,,,,,
acc,1778673019.0,18.0,-0.457031,3.84375,-9.914062,,,,,,,,,,
acc,1778673019.0,18.0,-0.457031,3.957031,-10.300781,,,,,,,,,,
acc,1778673019.0,18.0,-0.496094,3.726562,-9.992188,,,,,,,,,,
acc,1778673019.0,18.0,-0.382812,3.765625,-10.179688,,,,,,,,,,
acc,1778673019.0,18.0,-0.34375,3.574219,-9.652344,,,,,,,,,,
acc,1778673019.0,18.0,-0.34375,3.652344,-9.757812,,,,,,,,,,
acc,1778673019.0,18.0,-0.382812,3.882812,-9.648438,,,,,,,,,,
acc,1778673019.0,18.0,-0.382812,3.726562,-9.691406,,,,,,,,,,
acc,1778673019.0,18.0,-0.417969,3.382812,-9.953125,,,,,,,,,,
acc,1778673019.0,18.0,-0.304688,3.535156,-9.839844,,,,,,,,,,
acc,1778673019.0,18.0,-0.304688,3.574219,-10.109375,,,,,,,,,,
acc,1778673019.0,18.0,-0.304688,3.535156,-9.796875,,,,,,,,,,
acc,1778673019.0,18.0,-0.457031,3.84375,-10.148438,,,,,,,,,,
acc,1778673019.0,18.0,-0.457031,4.113281,-9.875,,,,,,,,,,
acc,1778673019.0,18.0,-0.34375,3.726562,-9.875,,,,,,,,,,
acc,1778673019.0,18.0,-0.265625,3.921875,-9.800781,,,,,,,,,,
acc,1778673019.0,18.0,-0.34375,3.613281,-9.835938,,,,,,,,,,
acc,1778673019.0,18.0,-0.417969,3.382812,-9.648438,,,,,,,,,,
acc,1778673019.0,18.0,-0.34375,3.84375,-10.074219,,,,,,,,,,
acc,1778673019.0,18.0,-0.34375,3.726562,-9.53125,,,,,,,,,,
acc,1778673019.0,18.0,-0.265625,3.535156,-10.070312,,,,,,,,,,
acc,1778673019.0,18.0,-0.191406,3.460938,-9.6875,,,,,,,,,,
acc,1778673019.0,18.0,-0.265625,3.152344,-9.957031,,,,,,,,,,
acc,1778673019.0,18.0,-0.265625,3.117188,-9.957031,,,,,,,,,,
acc,1778673019.0,18.0,-0.113281,3.535156,-9.800781,,,,,,,,,,
acc,1778673019.0,18.0,-0.035156,3.804688,-9.878906,,,,,,,,,,
acc,1778673019.0,18.0,-0.113281,3.921875,-9.226562,,,,,,,,,,
acc,1778673019.0,18.0,0.117188,4.035156,-9.800781,,,,,,,,,,
acc,1778673019.0,18.0,0.230469,3.957031,-9.652344,,,,,,,,,,
acc,1778673019.0,18.0,-0.074219,3.652344,-9.878906,,,,,,,,,,
acc,1778673019.0,18.0,-0.191406,3.882812,-9.878906,,,,,,,,,,
acc,1778673019.0,18.0,-0.191406,3.957031,-9.796875,,,,,,,,,,
acc,1778673019.0,18.0,-0.074219,3.726562,-9.613281,,,,,,,,,,
acc,1778673019.0,18.0,0.0,3.804688,-9.761719,,,,,,,,,,
acc,1778673019.0,18.0,-0.191406,3.996094,-9.457031,,,,,,,,,,
acc,1778673019.0,18.0,-0.34375,3.921875,-9.496094,,,,,,,,,,
acc,1778673019.0,18.0,-0.304688,3.765625,-9.757812,,,,,,,,,,
acc,1778673019.0,18.0,-0.113281,3.726562,-9.53125,,,,,,,,,,
acc,1778673019.0,18.0,-0.113281,4.035156,-9.800781,,,,,,,,,,
acc,1778673019.0,18.0,-0.152344,3.957031,-9.648438,,,,,,,,,,
acc,1778673019.0,18.0,-0.226562,3.652344,-9.609375,,,,,,,,,,
acc,1778673019.0,18.0,-0.226562,3.765625,-9.839844,,,,,,,,,,
acc,1778673019.0,18.0,-0.226562,3.574219,-9.535156,,,,,,,,,,
acc,1778673019.0,18.0,-0.113281,3.804688,-9.796875,,,,,,,,,,
acc,1778673019.0,18.0,-0.113281,3.765625,-9.613281,,,,,,,,,,
acc,1778673019.0,18.0,-0.152344,3.765625,-9.613281,,,,,,,,,,
acc,1778673019.0,18.0,-0.382812,3.765625,-9.878906,,,,,,,,,,
acc,1778673019.0,18.0,-0.265625,3.613281,-9.796875,,,,,,,,,,
acc,1778673019.0,18.0,-0.265625,3.804688,-9.800781,,,,,,,,,,
acc,1778673019.0,18.0,-0.34375,4.148438,-9.6875,,,,,,,,,,
acc,1778673019.0,18.0,-0.191406,4.035156,-10.035156,,,,,,,,,,
acc,1778673019.0,18.0,-0.226562,4.035156,-9.230469,,,,,,,,,,
acc,1778673019.0,18.0,-0.265625,4.1875,-9.917969,,,,,,,,,,
acc,1778673020.0,19.0,-0.191406,3.882812,-9.34375,,,,,,,,,,
acc,1778673020.0,19.0,-0.152344,3.882812,-9.304688,,,,,,,,,,
acc,1778673020.0,19.0,-0.191406,4.339844,-9.878906,,,,,,,,,,
acc,1778673020.0,19.0,-0.226562,4.417969,-9.453125,,,,,,,,,,
acc,1778673020.0,19.0,-0.152344,3.84375,-9.757812,,,,,,,,,,
acc,1778673020.0,19.0,-0.152344,3.0,-9.691406,,,,,,,,,,
acc,1778673020.0,19.0,-0.152344,3.421875,-9.996094,,,,,,,,,,
acc,1778673020.0,19.0,-0.265625,3.652344,-9.796875,,,,,,,,,,
acc,1778673020.0,19.0,-0.34375,3.652344,-10.074219,,,,,,,,,,
acc,1778673020.0,19.0,-0.265625,3.691406,-9.914062,,,,,,,,,,
acc,1778673020.0,19.0,-0.382812,3.230469,-9.761719,,,,,,,,,,
acc,1778673020.0,19.0,-0.265625,3.34375,-10.070312,,,,,,,,,,
acc,1778673020.0,19.0,-0.265625,3.726562,-9.417969,,,,,,,,,,
acc,1778673020.0,19.0,-0.382812,4.148438,-9.839844,,,,,,,,,,
acc,1778673020.0,19.0,-0.382812,4.339844,-9.609375,,,,,,,,,,
acc,1778673020.0,19.0,-0.265625,3.996094,-9.6875,,,,,,,,,,
acc,1778673020.0,19.0,-0.34375,3.804688,-9.6875,,,,,,,,,,
acc,1778673020.0,19.0,-0.34375,3.765625,-9.535156,,,,,,,,,,
acc,1778673020.0,19.0,-0.265625,3.765625,-9.875,,,,,,,,,,
acc,1778673020.0,19.0,-0.191406,3.613281,-9.652344,,,,,,,,,,
acc,1778673020.0,19.0,-0.226562,3.652344,-9.953125,,,,,,,,,,
acc,1778673020.0,19.0,-0.304688,3.726562,-9.996094,,,,,,,,,,
acc,1778673020.0,19.0,-0.417969,3.5,-9.914062,,,,,,,,,,
acc,1778673020.0,19.0,-0.34375,3.691406,-9.839844,,,,,,,,,,
acc,1778673020.0,19.0,-0.265625,3.957031,-10.152344,,,,,,,,,,
acc,1778673020.0,19.0,-0.191406,3.882812,-9.726562,,,,,,,,,,
acc,1778673020.0,19.0,-0.152344,4.148438,-9.917969,,,,,,,,,,
acc,1778673020.0,19.0,-0.226562,4.035156,-9.835938,,,,,,,,,,
acc,1778673020.0,19.0,-0.226562,4.074219,-9.652344,,,,,,,,,,
acc,1778673020.0,19.0,-0.226562,4.226562,-9.648438,,,,,,,,,,
acc,1778673020.0,19.0,-0.152344,4.226562,-9.691406,,,,,,,,,,
acc,1778673020.0,19.0,-0.113281,4.265625,-9.457031,,,,,,,,,,
acc,1778673020.0,19.0,-0.074219,4.148438,-9.875,,,,,,,,,,
acc,1778673020.0,19.0,-0.113281,4.304688,-9.378906,,,,,,,,,,
acc,1778673020.0,19.0,-0.113281,4.417969,-9.648438,,,,,,,,,,
acc,1778673020.0,19.0,-0.035156,4.265625,-9.917969,,,,,,,,,,
acc,1778673020.0,19.0,-0.035156,4.113281,-9.609375,,,,,,,,,,
acc,1778673020.0,19.0,-0.113281,3.996094,-9.757812,,,,,,,,,,
acc,1778673020.0,19.0,-0.035156,4.074219,-9.6875,,,,,,,,,,
acc,1778673020.0,19.0,-0.035156,3.691406,-9.652344,,,,,,,,,,
acc,1778673020.0,19.0,0.0,3.613281,-9.953125,,,,,,,,,,
acc,1778673020.0,19.0,-0.035156,3.84375,-9.914062,,,,,,,,,,
acc,1778673020.0,19.0,-0.152344,3.726562,-9.691406,,,,,,,,,,
acc,1778673020.0,19.0,-0.34375,3.882812,-10.074219,,,,,,,,,,
acc,1778673020.0,19.0,-0.226562,3.804688,-9.796875,,,,,,,,,,
acc,1778673020.0,19.0,-0.113281,3.921875,-9.878906,,,,,,,,,,
acc,1778673020.0,19.0,-0.113281,3.574219,-9.613281,,,,,,,,,,
acc,1778673020.0,19.0,-0.074219,3.34375,-9.878906,,,,,,,,,,
acc,1778673020.0,19.0,-0.113281,3.535156,-9.730469,,,,,,,,,,
acc,1778673020.0,19.0,-0.152344,3.5,-9.835938,,,,,,,,,,
acc,1778673020.0,19.0,-0.113281,3.230469,-9.878906,,,,,,,,,,
acc,1778673020.0,19.0,-0.152344,3.382812,-9.800781,,,,,,,,,,
acc,1778673020.0,19.0,-0.074219,3.535156,-9.839844,,,,,,,,,,
acc,1778673020.0,19.0,-0.191406,3.652344,-9.796875,,,,,,,,,,
acc,1778673020.0,19.0,-0.304688,3.765625,-9.730469,,,,,,,,,,
acc,1778673020.0,19.0,-0.34375,3.921875,-10.070312,,,,,,,,,,
acc,1778673020.0,19.0,-0.265625,3.804688,-9.800781,,,,,,,,,,
acc,1778673020.0,19.0,-0.34375,3.84375,-9.835938,,,,,,,,,,
acc,1778673020.0,19.0,-0.34375,3.726562,-9.757812,,,,,,,,,,
acc,1778673020.0,19.0,-0.265625,4.113281,-9.6875,,,,,,,,,,
acc,1778673020.0,19.0,-0.265625,4.148438,-9.757812,,,,,,,,,,
acc,1778673020.0,19.0,-0.265625,3.882812,-9.839844,,,,,,,,,,
acc,1778673020.0,19.0,-0.152344,3.726562,-9.800781,,,,,,,,,,
acc,1778673020.0,19.0,-0.304688,3.882812,-9.726562,,,,,,,,,,
acc,1778673020.0,19.0,-0.265625,3.652344,-9.761719,,,,,,,,,,
acc,1778673020.0,19.0,-0.226562,3.421875,-9.535156,,,,,,,,,,
acc,1778673020.0,19.0,-0.191406,4.035156,-9.839844,,,,,,,,,,
acc,1778673020.0,19.0,-0.191406,3.957031,-9.726562,,,,,,,,,,
acc,1778673020.0,19.0,-0.074219,4.226562,-9.839844,,,,,,,,,,
acc,1778673020.0,19.0,-0.265625,4.53125,-9.757812,,,,,,,,,,
acc,1778673020.0,19.0,-0.34375,4.304688,-10.070312,,,,,,,,,,
acc,1778673020.0,19.0,-0.226562,4.457031,-9.691406,,,,,,,,,,
acc,1778673020.0,19.0,-0.265625,4.265625,-9.757812,,,,,,,,,,
acc,1778673020.0,19.0,-0.226562,3.691406,-9.996094,,,,,,,,,,
acc,1778673020.0,19.0,-0.226562,3.691406,-9.839844,,,,,,,,,,
acc,1778673020.0,19.0,-0.265625,3.613281,-10.261719,,,,,,,,,,
acc,1778673020.0,19.0,-0.34375,3.652344,-9.914062,,,,,,,,,,
acc,1778673020.0,19.0,-0.34375,3.652344,-10.03125,,,,,,,,,,
acc,1778673020.0,19.0,-0.265625,3.382812,-9.878906,,,,,,,,,,
acc,1778673020.0,19.0,-0.265625,3.765625,-9.730469,,,,,,,,,,
acc,1778673020.0,19.0,-0.382812,4.113281,-10.109375,,,,,,,,,,
acc,1778673020.0,19.0,-0.304688,3.84375,-9.652344,,,,,,,,,,
acc,1778673020.0,19.0,-0.304688,3.652344,-9.996094,,,,,,,,,,
acc,1778673020.0,19.0,-0.304688,3.34375,-9.726562,,,,,,,,,,
acc,1778673020.0,19.0,-0.191406,3.230469,-9.800781,,,,,,,,,,
acc,1778673020.0,19.0,-0.191406,3.574219,-9.914062,,,,,,,,,,
acc,1778673020.0,19.0,-0.382812,3.691406,-9.996094,,,,,,,,,,
acc,1778673020.0,19.0,-0.34375,4.148438,-9.796875,,,,,,,,,,
acc,1778673020.0,19.0,-0.265625,4.378906,-9.652344,,,,,,,,,,
acc,1778673020.0,19.0,-0.113281,4.265625,-9.996094,,,,,,,,,,
acc,1778673020.0,19.0,-0.226562,3.921875,-9.308594,,,,,,,,,,
acc,1778673020.0,19.0,-0.191406,3.765625,-9.992188,,,,,,,,,,
acc,1778673020.0,19.0,-0.152344,3.613281,-9.492188,,,,,,,,,,
acc,1778673020.0,19.0,-0.152344,3.691406,-9.839844,,,,,,,,,,
acc,1778673020.0,19.0,-0.152344,3.691406,-9.652344,,,,,,,,,,
acc,1778673020.0,19.0,-0.265625,3.84375,-9.6875,,,,,,,,,,
acc,1778673020.0,19.0,-0.382812,3.84375,-9.835938,,,,,,,,,,
acc,1778673020.0,19.0,-0.34375,3.84375,-9.914062,,,,,,,,,,
acc,1778673020.0,19.0,-0.417969,3.84375,-9.648438,,,,,,,,,,
acc,1778673020.0,19.0,-0.382812,3.535156,-9.800781,,,,,,,,,,
acc,1778673020.0,19.0,-0.34375,3.574219,-9.570312,,,,,,,,,,
acc,1778673020.0,19.0,-0.304688,3.5,-9.6875,,,,,,,,,,
acc,1778673020.0,19.0,-0.265625,3.804688,-9.992188,,,,,,,,,,
acc,1778673020.0,19.0,-0.34375,3.460938,-9.730469,,,,,,,,,,
acc,1778673020.0,19.0,-0.496094,3.421875,-10.113281,,,,,,,,,,
acc,1778673020.0,19.0,-0.535156,3.765625,-10.035156,,,,,,,,,,
acc,1778673020.0,19.0,-0.382812,3.421875,-9.796875,,,,,,,,,,
acc,1778673020.0,19.0,-0.191406,3.804688,-9.609375,,,,,,,,,,
acc,1778673020.0,19.0,-0.152344,3.691406,-9.6875,,,,,,,,,,
acc,1778673020.0,19.0,-0.191406,3.574219,-9.648438,,,,,,,,,,
acc,1778673020.0,19.0,-0.226562,3.421875,-9.917969,,,,,,,,,,
acc,1778673020.0,19.0,-0.074219,3.382812,-9.917969,,,,,,,,,,
acc,1778673020.0,19.0,-0.265625,3.84375,-9.652344,,,,,,,,,,
acc,1778673020.0,19.0,-0.113281,3.921875,-9.917969,,,,,,,,,,
acc,1778673020.0,19.0,0.0,3.84375,-9.453125,,,,,,,,,,
acc,1778673020.0,19.0,0.0,3.691406,-9.535156,,,,,,,,,,
acc,1778673020.0,19.0,0.039062,3.84375,-9.800781,,,,,,,,,,
acc,1778673020.0,19.0,0.0,3.652344,-9.492188,,,,,,,,,,
acc,1778673020.0,19.0,-0.113281,3.613281,-9.800781,,,,,,,,,,
acc,1778673020.0,19.0,0.0,4.074219,-9.839844,,,,,,,,,,
acc,1778673020.0,19.0,0.078125,3.996094,-9.757812,,,,,,,,,,
acc,1778673020.0,19.0,0.0,3.957031,-9.648438,,,,,,,,,,
acc,1778673020.0,19.0,-0.074219,3.996094,-10.035156,,,,,,,,,,
acc,1778673020.0,19.0,0.0,3.84375,-9.800781,,,,,,,,,,
acc,1778673020.0,19.0,0.0,4.035156,-9.835938,,,,,,,,,,
acc,1778673020.0,19.0,-0.074219,4.417969,-9.917969,,,,,,,,,,
acc,1778673021.0,20.0,-0.113281,4.378906,-9.757812,,,,,,,,,,
acc,1778673021.0,20.0,-0.152344,4.265625,-9.839844,,,,,,,,,,
acc,1778673021.0,20.0,-0.152344,4.148438,-9.957031,,,,,,,,,,
acc,1778673021.0,20.0,-0.152344,3.882812,-9.914062,,,,,,,,,,
acc,1778673021.0,20.0,-0.113281,3.921875,-9.6875,,,,,,,,,,
acc,1778673021.0,20.0,-0.191406,3.613281,-9.726562,,,,,,,,,,
acc,1778673021.0,20.0,-0.074219,3.382812,-9.917969,,,,,,,,,,
acc,1778673021.0,20.0,-0.152344,3.5,-9.574219,,,,,,,,,,
acc,1778673021.0,20.0,-0.113281,3.726562,-9.835938,,,,,,,,,,
acc,1778673021.0,20.0,-0.152344,3.84375,-9.609375,,,,,,,,,,
acc,1778673021.0,20.0,-0.113281,3.726562,-9.875,,,,,,,,,,
acc,1778673021.0,20.0,-0.074219,3.574219,-9.53125,,,,,,,,,,
