sensor,time,t,ax,ay,az,wx,wy,wz,lat,lon,alt,v_kmh,satellites,x,y
acc,1778675319.0,64.0,0.078125,0.394531,-9.652344,,,,,,,,,,
acc,1778675319.0,64.0,0.078125,0.394531,-9.613281,,,,,,,,,,
acc,1778675319.0,64.0,0.117188,0.433594,-9.652344,,,,,,,,,,
acc,1778675319.0,64.0,0.117188,0.472656,-9.648438,,,,,,,,,,
acc,1778675319.0,64.0,0.117188,0.433594,-9.613281,,,,,,,,,,
acc,1778675319.0,64.0,0.117188,0.472656,-9.648438,,,,,,,,,,
acc,1778675319.0,64.0,0.15625,0.511719,-9.648438,,,,,,,,,,
acc,1778675319.0,64.0,0.15625,0.511719,-9.691406,,,,,,,,,,
acc,1778675319.0,64.0,0.15625,0.511719,-9.730469,,,,,,,,,,
acc,1778675319.0,64.0,0.191406,0.550781,-9.730469,,,,,,,,,,
acc,1778675319.0,64.0,0.15625,0.550781,-9.761719,,,,,,,,,,
acc,1778675319.0,64.0,0.15625,0.585938,-9.761719,,,,,,,,,,
acc,1778675319.0,64.0,0.191406,0.585938,-9.800781,,,,,,,,,,
acc,1778675319.0,64.0,0.191406,0.585938,-9.800781,,,,,,,,,,
acc,1778675319.0,64.0,0.15625,0.585938,-9.839844,,,,,,,,,,
acc,1778675319.0,64.0,0.15625,0.585938,-9.839844,,,,,,,,,,
acc,1778675319.0,64.0,0.117188,0.585938,-9.878906,,,,,,,,,,
acc,1778675319.0,64.0,0.15625,0.550781,-9.878906,,,,,,,,,,
acc,1778675319.0,64.0,0.117188,0.511719,-9.875,,,,,,,,,,
acc,1778675319.0,64.0,0.117188,0.472656,-9.914062,,,,,,,,,,
acc,1778675319.0,64.0,0.078125,0.472656,-9.953125,,,,,,,,,,
acc,1778675319.0,64.0,0.078125,0.433594,-9.957031,,,,,,,,,,
acc,1778675319.0,64.0,0.039062,0.433594,-9.996094,,,,,,,,,,
acc,1778675319.0,64.0,0.039062,0.433594,-9.957031,,,,,,,,,,
acc,1778675319.0,64.0,0.0,0.394531,-9.996094,,,,,,,,,,
acc,1778675319.0,64.0,0.039062,0.394531,-9.996094,,,,,,,,,,
acc,1778675319.0,64.0,0.039062,0.394531,-9.996094,,,,,,,,,,
acc,1778675319.0,64.0,0.039062,0.355469,-9.992188,,,,,,,,,,
acc,1778675319.0,64.0,0.078125,0.355469,-9.953125,,,,,,,,,,
acc,1778675319.0,64.0,0.078125,0.355469,-9.953125,,,,,,,,,,
acc,1778675319.0,64.0,0.078125,0.320312,-9.953125,,,,,,,,,,
acc,1778675319.0,64.0,0.078125,0.320312,-9.875,,,,,,,,,,
acc,1778675319.0,64.0,0.078125,0.28125,-9.878906,,,,,,,,,,
acc,1778675319.0,64.0,0.078125,0.28125,-9.839844,,,,,,,,,,
acc,1778675319.0,64.0,0.117188,0.28125,-9.878906,,,,,,,,,,
acc,1778675319.0,64.0,0.117188,0.242188,-9.839844,,,,,,,,,,
acc,1778675319.0,64.0,0.117188,0.203125,-9.839844,,,,,,,,,,
acc,1778675319.0,64.0,0.117188,0.203125,-9.839844,,,,,,,,,,
acc,1778675319.0,64.0,0.15625,0.203125,-9.796875,,,,,,,,,,
acc,1778675319.0,64.0,0.191406,0.164062,-9.800781,,,,,,,,,,
acc,1778675319.0,64.0,0.15625,0.164062,-9.761719,,,,,,,,,,
acc,1778675319.0,64.0,0.15625,0.164062,-9.761719,,,,,,,,,,
acc,1778675319.0,64.0,0.15625,0.164062,-9.6875,,,,,,,,,,
acc,1778675319.0,64.0,0.191406,0.128906,-9.6875,,,,,,,,,,
acc,1778675319.0,64.0,0.191406,0.128906,-9.652344,,,,,,,,,,
acc,1778675319.0,64.0,0.191406,0.164062,-9.648438,,,,,,,,,,
acc,1778675319.0,64.0,0.191406,0.164062,-9.609375,,,,,,,,,,
acc,1778675319.0,64.0,0.230469,0.164062,-9.648438,,,,,,,,,,
acc,1778675319.0,64.0,0.191406,0.203125,-9.648438,,,,,,,,,,
acc,1778675319.0,64.0,0.230469,0.242188,-9.609375,,,,,,,,,,
acc,1778675319.0,64.0,0.191406,0.28125,-9.691406,,,,,,,,,,
acc,1778675319.0,64.0,0.191406,0.28125,-9.648438,,,,,,,,,,
acc,1778675319.0,64.0,0.191406,0.320312,-9.6875,,,,,,,,,,
acc,1778675319.0,64.0,0.191406,0.355469,-9.6875,,,,,,,,,,
acc,1778675319.0,64.0,0.191406,0.355469,-9.726562,,,,,,,,,,
acc,1778675319.0,64.0,0.15625,0.394531,-9.726562,,,,,,,,,,
acc,1778675319.0,64.0,0.15625,0.394531,-9.761719,,,,,,,,,,
acc,1778675319.0,64.0,0.15625,0.394531,-9.796875,,,,,,,,,,
acc,1778675319.0,64.0,0.117188,0.433594,-9.796875,,,,,,,,,,
acc,1778675319.0,64.0,0.078125,0.433594,-9.839844,,,,,,,,,,
acc,1778675319.0,64.0,0.078125,0.433594,-9.839844,,,,,,,,,,
acc,1778675319.0,64.0,0.039062,0.472656,-9.835938,,,,,,,,,,
acc,1778675319.0,64.0,0.039062,0.472656,-9.835938,,,,,,,,,,
acc,1778675319.0,64.0,0.039062,0.472656,-9.835938,,,,,,,,,,
acc,1778675319.0,64.0,0.039062,0.472656,-9.835938,,,,,,,,,,
acc,1778675319.0,64.0,0.0,0.472656,-9.875,,,,,,,,,,
acc,1778675319.0,64.0,0.078125,0.472656,-9.914062,,,,,,,,,,
acc,1778675319.0,64.0,0.078125,0.472656,-9.875,,,,,,,,,,
acc,1778675319.0,64.0,0.039062,0.511719,-9.875,,,,,,,,,,
acc,1778675319.0,64.0,0.078125,0.550781,-9.917969,,,,,,,,,,
acc,1778675319.0,64.0,0.039062,0.511719,-9.875,,,,,,,,,,
acc,1778675319.0,64.0,0.039062,0.511719,-9.914062,,,,,,,,,,
acc,1778675319.0,64.0,0.039062,0.511719,-9.914062,,,,,,,,,,
acc,1778675319.0,64.0,0.039062,0.511719,-9.875,,,,,,,,,,
acc,1778675319.0,64.0,0.039062,0.511719,-9.914062,,,,,,,,,,
acc,1778675319.0,64.0,0.039062,0.511719,-9.875,,,,,,,,,,
acc,1778675319.0,64.0,0.039062,0.472656,-9.875,,,,,,,,,,
acc,1778675319.0,64.0,0.078125,0.511719,-9.914062,,,,,,,,,,
acc,1778675319.0,64.0,0.039062,0.511719,-9.875,,,,,,,,,,
acc,1778675319.0,64.0,0.0,0.550781,-9.878906,,,,,,,,,,
acc,1778675319.0,64.0,0.039062,0.511719,-9.875,,,,,,,,,,
acc,1778675319.0,64.0,0.039062,0.511719,-9.875,,,,,,,,,,
acc,1778675319.0,64.0,0.078125,0.472656,-9.835938,,,,,,,,,,
acc,1778675319.0,64.0,0.078125,0.472656,-9.875,,,,,,,,,,
acc,1778675319.0,64.0,0.078125,0.433594,-9.839844,,,,,,,,,,
acc,1778675319.0,64.0,0.117188,0.394531,-9.878906,,,,,,,,,,
acc,1778675319.0,64.0,0.15625,0.394531,-9.839844,,,,,,,,,,
acc,1778675319.0,64.0,0.15625,0.355469,-9.835938,,,,,,,,,,
acc,1778675319.0,64.0,0.117188,0.355469,-9.757812,,,,,,,,,,
acc,1778675319.0,64.0,0.117188,0.355469,-9.757812,,,,,,,,,,
acc,1778675319.0,64.0,0.117188,0.320312,-9.800781,,,,,,,,,,
acc,1778675319.0,64.0,0.117188,0.320312,-9.757812,,,,,,,,,,
acc,1778675319.0,64.0,0.117188,0.28125,-9.796875,,,,,,,,,,
acc,1778675319.0,64.0,0.15625,0.242188,-9.761719,,,,,,,,,,
acc,1778675319.0,64.0,0.15625,0.28125,-9.761719,,,,,,,,,,
acc,1778675319.0,64.0,0.191406,0.242188,-9.757812,,,,,,,,,,
acc,1778675319.0,64.0,0.15625,0.242188,-9.761719,,,,,,,,,,
acc,1778675319.0,64.0,0.15625,0.242188,-9.726562,,,,,,,,,,
acc,1778675319.0,64.0,0.15625,0.242188,-9.726562,,,,,,,,,,
acc,1778675319.0,64.0,0.117188,0.242188,-9.726562,,,,,,,,,,
acc,1778675319.0,64.0,0.15625,0.242188,-9.726562,,,,,,,,,,
acc,1778675319.0,64.0,0.15625,0.28125,-9.726562,,,,,,,,,,
acc,1778675319.0,64.0,0.15625,0.28125,-9.726562,,,,,,,,,,
acc,1778675319.0,64.0,0.230469,0.242188,-9.757812,,,,,,,,,,
acc,1778675319.0,64.0,0.191406,0.28125,-9.757812,,,,,,,,,,
acc,1778675319.0,64.0,0.191406,0.28125,-9.757812,,,,,,,,,,
acc,1778675319.0,64.0,0.191406,0.28125,-9.757812,,,,,,,,,,
acc,1778675319.0,64.0,0.15625,0.28125,-9.761719,,,,,,,,,,
acc,1778675319.0,64.0,0.15625,0.320312,-9.757812,,,,,,,,,,
acc,1778675319.0,64.0,0.15625,0.320312,-9.800781,,,,,,,,,,
acc,1778675319.0,64.0,0.15625,0.355469,-9.800781,,,,,,,,,,
acc,1778675319.0,64.0,0.117188,0.355469,-9.835938,,,,,,,,,,
acc,1778675319.0,64.0,0.117188,0.355469,-9.835938,,,,,,,,,,
acc,1778675319.0,64.0,0.117188,0.355469,-9.835938,,,,,,,,,,
acc,1778675319.0,64.0,0.117188,0.394531,-9.839844,,,,,,,,,,
acc,1778675319.0,64.0,0.117188,0.394531,-9.878906,,,,,,,,,,
acc,1778675319.0,64.0,0.078125,0.394531,-9.839844,,,,,,,,,,
acc,1778675319.0,64.0,0.078125,0.472656,-9.835938,,,,,,,,,,
acc,1778675319.0,64.0,0.078125,0.433594,-9.839844,,,,,,,,,,
acc,1778675319.0,64.0,0.039062,0.433594,-9.839844,,,,,,,,,,
acc,1778675319.0,64.0,0.078125,0.433594,-9.839844,,,,,,,,,,
acc,1778675319.0,64.0,0.078125,0.394531,-9.796875,,,,,,,,,,
acc,1778675319.0,64.0,0.078125,0.433594,-9.839844,,,,,,,,,,
acc,1778675319.0,64.0,0.078125,0.394531,-9.839844,,,,,,,,,,
acc,1778675319.0,64.0,0.078125,0.433594,-9.839844,,,,,,,,,,
acc,1778675319.0,64.0,0.078125,0.472656,-9.835938,,,,,,,,,,
acc,1778675320.0,65.0,0.078125,0.433594,-9.839844,,,,,,,,,,
acc,1778675320.0,65.0,0.078125,0.472656,-9.835938,,,,,,,,,,
acc,1778675320.0,65.0,0.078125,0.472656,-9.835938,,,,,,,,,,
acc,1778675320.0,65.0,0.078125,0.472656,-9.835938,,,,,,,,,,
acc,1778675320.0,65.0,0.078125,0.433594,-9.796875,,,,,,,,,,
acc,1778675320.0,65.0,0.117188,0.433594,-9.839844,,,,,,,,,,
acc,1778675320.0,65.0,0.117188,0.433594,-9.839844,,,,,,,,,,
acc,1778675320.0,65.0,0.15625,0.394531,-9.796875,,,,,,,,,,
acc,1778675320.0,65.0,0.078125,0.433594,-9.878906,,,,,,,,,,
acc,1778675320.0,65.0,0.078125,0.433594,-9.796875,,,,,,,,,,
acc,1778675320.0,65.0,0.078125,0.433594,-9.839844,,,,,,,,,,
acc,1778675320.0,65.0,0.078125,0.433594,-9.796875,,,,,,,,,,
acc,1778675320.0,65.0,0.078125,0.433594,-9.796875,,,,,,,,,,
acc,1778675320.0,65.0,0.078125,0.394531,-9.796875,,,,,,,,,,
acc,1778675320.0,65.0,0.117188,0.355469,-9.835938,,,,,,,,,,
acc,1778675320.0,65.0,0.117188,0.355469,-9.800781,,,,,,,,,,
acc,1778675320.0,65.0,0.15625,0.320312,-9.800781,,,,,,,,,,
acc,1778675320.0,65.0,0.15625,0.355469,-9.835938,,,,,,,,,,
acc,1778675320.0,65.0,0.15625,0.320312,-9.757812,,,,,,,,,,
acc,1778675320.0,65.0,0.117188,0.320312,-9.730469,,,,,,,,,,
acc,1778675320.0,65.0,0.117188,0.320312,-9.835938,,,,,,,,,,
acc,1778675320.0,65.0,0.117188,0.355469,-9.835938,,,,,,,,,,
acc,1778675320.0,65.0,0.15625,0.355469,-9.730469,,,,,,,,,,
acc,1778675320.0,65.0,0.15625,0.320312,-9.757812,,,,,,,,,,
acc,1778675320.0,65.0,0.191406,0.320312,-9.796875,,,,,,,,,,
acc,1778675320.0,65.0,0.15625,0.320312,-9.800781,,,,,,,,,,
acc,1778675320.0,65.0,0.15625,0.320312,-9.757812,,,,,,,,,,
acc,1778675320.0,65.0,0.15625,0.355469,-9.800781,,,,,,,,,,
acc,1778675320.0,65.0,0.15625,0.320312,-9.757812,,,,,,,,,,
acc,1778675320.0,65.0,0.117188,0.355469,-9.757812,,,,,,,,,,
acc,1778675320.0,65.0,0.117188,0.394531,-9.796875,,,,,,,,,,
acc,1778675320.0,65.0,0.117188,0.355469,-9.800781,,,,,,,,,,
acc,1778675320.0,65.0,0.117188,0.355469,-9.800781,,,,,,,,,,
acc,1778675320.0,65.0,0.15625,0.355469,-9.835938,,,,,,,,,,
acc,1778675320.0,65.0,0.15625,0.355469,-9.835938,,,,,,,,,,
acc,1778675320.0,65.0,0.15625,0.355469,-9.800781,,,,,,,,,,
acc,1778675320.0,65.0,0.15625,0.355469,-9.800781,,,,,,,,,,
acc,1778675320.0,65.0,0.117188,0.394531,-9.839844,,,,,,,,,,
acc,1778675320.0,65.0,0.117188,0.394531,-9.796875,,,,,,,,,,
acc,1778675320.0,65.0,0.117188,0.394531,-9.839844,,,,,,,,,,
acc,1778675320.0,65.0,0.117188,0.394531,-9.839844,,,,,,,,,,
acc,1778675320.0,65.0,0.078125,0.394531,-9.839844,,,,,,,,,,
acc,1778675320.0,65.0,0.15625,0.394531,-9.839844,,,,,,,,,,
acc,1778675320.0,65.0,0.078125,0.355469,-9.800781,,,,,,,,,,
acc,1778675320.0,65.0,0.117188,0.355469,-9.800781,,,,,,,,,,
acc,1778675320.0,65.0,0.117188,0.394531,-9.796875,,,,,,,,,,
acc,1778675320.0,65.0,0.117188,0.394531,-9.839844,,,,,,,,,,
acc,1778675320.0,65.0,0.078125,0.394531,-9.839844,,,,,,,,,,
acc,1778675320.0,65.0,0.078125,0.355469,-9.800781,,,,,,,,,,
acc,1778675320.0,65.0,0.078125,0.355469,-9.800781,,,,,,,,,,
acc,1778675320.0,65.0,0.078125,0.355469,-9.800781,,,,,,,,,,
acc,1778675320.0,65.0,0.078125,0.355469,-9.800781,,,,,,,,,,
acc,1778675320.0,65.0,0.117188,0.355469,-9.835938,,,,,,,,,,
acc,1778675320.0,65.0,0.078125,0.355469,-9.800781,,,,,,,,,,
acc,1778675320.0,65.0,0.078125,0.394531,-9.796875,,,,,,,,,,
acc,1778675320.0,65.0,0.078125,0.394531,-9.796875,,,,,,,,,,
acc,1778675320.0,65.0,0.078125,0.394531,-9.839844,,,,,,,,,,
acc,1778675320.0,65.0,0.078125,0.394531,-9.796875,,,,,,,,,,
acc,1778675320.0,65.0,0.078125,0.394531,-9.796875,,,,,,,,,,
acc,1778675320.0,65.0,0.078125,0.394531,-9.761719,,,,,,,,,,
acc,1778675320.0,65.0,0.078125,0.394531,-9.796875,,,,,,,,,,
acc,1778675320.0,65.0,0.078125,0.394531,-9.796875,,,,,,,,,,
acc,1778675320.0,65.0,0.117188,0.394531,-9.796875,,,,,,,,,,
acc,1778675320.0,65.0,0.117188,0.394531,-9.796875,,,,,,,,,,
acc,1778675320.0,65.0,0.117188,0.394531,-9.761719,,,,,,,,,,
acc,1778675320.0,65.0,0.117188,0.394531,-9.796875,,,,,,,,,,
acc,1778675320.0,65.0,0.15625,0.433594,-9.796875,,,,,,,,,,
acc,1778675320.0,65.0,0.117188,0.394531,-9.761719,,,,,,,,,,
acc,1778675320.0,65.0,0.15625,0.394531,-9.796875,,,,,,,,,,
acc,1778675320.0,65.0,0.117188,0.394531,-9.796875,,,,,,,,,,
acc,1778675320.0,65.0,0.15625,0.355469,-9.800781,,,,,,,,,,
acc,1778675320.0,65.0,0.15625,0.355469,-9.800781,,,,,,,,,,
acc,1778675320.0,65.0,0.15625,0.355469,-9.835938,,,,,,,,,,
acc,1778675320.0,65.0,0.15625,0.355469,-9.800781,,,,,,,,,,
acc,1778675320.0,65.0,0.15625,0.355469,-9.835938,,,,,,,,,,
acc,1778675320.0,65.0,0.15625,0.355469,-9.800781,,,,,,,,,,
acc,1778675320.0,65.0,0.15625,0.394531,-9.796875,,,,,,,,,,
acc,1778675320.0,65.0,0.117188,0.355469,-9.800781,,,,,,,,,,
acc,1778675320.0,65.0,0.117188,0.394531,-9.796875,,,,,,,,,,
acc,1778675320.0,65.0,0.15625,0.355469,-9.835938,,,,,,,,,,
acc,1778675320.0,65.0,0.15625,0.355469,-9.835938,,,,,,,,,,
acc,1778675320.0,65.0,0.15625,0.355469,-9.835938,,,,,,,,,,
acc,1778675320.0,65.0,0.191406,0.355469,-9.839844,,,,,,,,,,
acc,1778675320.0,65.0,0.15625,0.355469,-9.800781,,,,,,,,,,
acc,1778675320.0,65.0,0.117188,0.394531,-9.839844,,,,,,,,,,
acc,1778675320.0,65.0,0.15625,0.355469,-9.800781,,,,,,,,,,
acc,1778675320.0,65.0,0.117188,0.394531,-9.796875,,,,,,,,,,
acc,1778675320.0,65.0,0.117188,0.394531,-9.796875,,,,,,,,,,
acc,1778675320.0,65.0,0.117188,0.394531,-9.796875,,,,,,,,,,
acc,1778675320.0,65.0,0.117188,0.355469,-9.800781,,,,,,,,,,
acc,1778675320.0,65.0,0.117188,0.355469,-9.800781,,,,,,,,,,
acc,1778675320.0,65.0,0.117188,0.355469,-9.800781,,,,,,,,,,
acc,1778675320.0,65.0,0.117188,0.355469,-9.800781,,,,,,,,,,
acc,1778675320.0,65.0,0.117188,0.355469,-9.800781,,,,,,,,,,
acc,1778675320.0,65.0,0.117188,0.355469,-9.800781,,,,,,,,,,
acc,1778675320.0,65.0,0.078125,0.355469,-9.800781,,,,,,,,,,
acc,1778675320.0,65.0,0.078125,0.394531,-9.761719,,,,,,,,,,
acc,1778675320.0,65.0,0.078125,0.394531,-9.796875,,,,,,,,,,
acc,1778675320.0,65.0,0.039062,0.394531,-9.796875,,,,,,,,,,
acc,1778675320.0,65.0,0.078125,0.394531,-9.796875,,,,,,,,,,
acc,1778675320.0,65.0,0.078125,0.355469,-9.800781,,,,,,,,,,
acc,1778675320.0,65.0,0.078125,0.355469,-9.757812,,,,,,,,,,
acc,1778675320.0,65.0,0.078125,0.394531,-9.796875,,,,,,,,,,
acc,1778675320.0,65.0,0.078125,0.394531,-9.839844,,,,,,,,,,
acc,1778675320.0,65.0,0.078125,0.433594,-9.796875,,,,,,,,,,
acc,1778675320.0,65.0,0.078125,0.394531,-9.796875,,,,,,,,,,
acc,1778675320.0,65.0,0.078125,0.394531,-9.796875,,,,,,,,,,
acc,1778675320.0,65.0,0.078125,0.394531,-9.796875,,,,,,,,,,
acc,1778675320.0,65.0,0.117188,0.394531,-9.796875,,,,,,,,,,
acc,1778675320.0,65.0,0.117188,0.394531,-9.839844,,,,,,,,,,
acc,1778675320.0,65.0,0.117188,0.355469,-9.800781,,,,,,,,,,
acc,1778675320.0,65.0,0.117188,0.394531,-9.839844,,,,,,,,,,
acc,1778675320.0,65.0,0.117188,0.355469,-9.835938,,,,,,,,,,
acc,1778675320.0,65.0,0.117188,0.355469,-9.835938,,,,,,,,,,
acc,1778675320.0,65.0,0.117188,0.394531,-9.839844,,,,,,,,,,
acc,1778675320.0,65.0,0.117188,0.394531,-9.796875,,,,,,,,,,
acc,1778675320.0,65.0,0.117188,0.394531,-9.839844,,,,,,,,,,
acc,1778675320.0,65.0,0.117188,0.433594,-9.796875,,,,,,,,,,
acc,1778675320.0,65.0,0.15625,0.394531,-9.796875,,,,,,,,,,
acc,1778675320.0,65.0,0.15625,0.355469,-9.800781,,,,,,,,,,
acc,1778675320.0,65.0,0.191406,0.394531,-9.800781,,,,,,,,,,
acc,1778675320.0,65.0,0.15625,0.355469,-9.835938,,,,,,,,,,
acc,1778675320.0,65.0,0.15625,0.355469,-9.800781,,,,,,,,,,
acc,1778675320.0,65.0,0.15625,0.394531,-9.796875,,,,,,,,,,
acc,1778675320.0,65.0,0.15625,0.394531,-9.839844,,,,,,,,,,
acc,1778675320.0,65.0,0.15625,0.355469,-9.800781,,,,,,,,,,
acc,1778675321.0,66.0,0.117188,0.355469,-9.800781,,,,,,,,,,
acc,1778675321.0,66.0,0.117188,0.355469,-9.800781,,,,,,,,,,
acc,1778675321.0,66.0,0.15625,0.355469,-9.800781,,,,,,,,,,
acc,1778675321.0,66.0,0.117188,0.355469,-9.835938,,,,,,,,,,
acc,1778675321.0,66.0,0.15625,0.320312,-9.800781,,,,,,,,,,
acc,1778675321.0,66.0,0.117188,0.355469,-9.757812,,,,,,,,,,
acc,1778675321.0,66.0,0.078125,0.355469,-9.800781,,,,,,,,,,
acc,1778675321.0,66.0,0.078125,0.355469,-9.757812,,,,,,,,,,
acc,1778675321.0,66.0,0.117188,0.355469,-9.757812,,,,,,,,,,
acc,1778675321.0,66.0,0.078125,0.355469,-9.800781,,,,,,,,,,
acc,1778675321.0,66.0,0.078125,0.355469,-9.757812,,,,,,,,,,
acc,1778675321.0,66.0,0.117188,0.355469,-9.757812,,,,,,,,,,
acc,1778675321.0,66.0,0.117188,0.355469,-9.757812,,,,,,,,,,
acc,1778675321.0,66.0,0.117188,0.355469,-9.800781,,,,,,,,,,
acc,1778675321.0,66.0,0.117188,0.355469,-9.800781,,,,,,,,,,
acc,1778675321.0,66.0,0.117188,0.355469,-9.800781,,,,,,,,,,
acc,1778675321.0,66.0,0.078125,0.355469,-9.800781,,,,,,,,,,
acc,1778675321.0,66.0,0.117188,0.355469,-9.800781,,,,,,,,,,
acc,1778675321.0,66.0,0.078125,0.394531,-9.796875,,,,,,,,,,
acc,1778675321.0,66.0,0.078125,0.355469,-9.800781,,,,,,,,,,
acc,1778675321.0,66.0,0.078125,0.355469,-9.800781,,,,,,,,,,
acc,1778675321.0,66.0,0.117188,0.355469,-9.835938,,,,,,,,,,
acc,1778675321.0,66.0,0.117188,0.355469,-9.835938,,,,,,,,,,
acc,1778675321.0,66.0,0.117188,0.355469,-9.835938,,,,,,,,,,
acc,1778675321.0,66.0,0.117188,0.355469,-9.835938,,,,,,,,,,
acc,1778675321.0,66.0,0.117188,0.394531,-9.796875,,,,,,,,,,
acc,1778675321.0,66.0,0.117188,0.394531,-9.796875,,,,,,,,,,
acc,1778675321.0,66.0,0.117188,0.394531,-9.839844,,,,,,,,,,
acc,1778675321.0,66.0,0.117188,0.433594,-9.796875,,,,,,,,,,
acc,1778675321.0,66.0,0.117188,0.394531,-9.839844,,,,,,,,,,
acc,1778675321.0,66.0,0.117188,0.394531,-9.796875,,,,,,,,,,
acc,1778675321.0,66.0,0.117188,0.394531,-9.839844,,,,,,,,,,
acc,1778675321.0,66.0,0.117188,0.394531,-9.839844,,,,,,,,,,
acc,1778675321.0,66.0,0.117188,0.394531,-9.839844,,,,,,,,,,
acc,1778675321.0,66.0,0.117188,0.394531,-9.839844,,,,,,,,,,
acc,1778675321.0,66.0,0.117188,0.394531,-9.839844,,,,,,,,,,
acc,1778675321.0,66.0,0.117188,0.433594,-9.796875,,,,,,,,,,
acc,1778675321.0,66.0,0.117188,0.394531,-9.796875,,,,,,,,,,
acc,1778675321.0,66.0,0.078125,0.394531,-9.796875,,,,,,,,,,
acc,1778675321.0,66.0,0.117188,0.355469,-9.800781,,,,,,,,,,
acc,1778675321.0,66.0,0.117188,0.355469,-9.800781,,,,,,,,,,
acc,1778675321.0,66.0,0.15625,0.355469,-9.800781,,,,,,,,,,
acc,1778675321.0,66.0,0.15625,0.355469,-9.800781,,,,,,,,,,
acc,1778675321.0,66.0,0.15625,0.355469,-9.835938,,,,,,,,,,
acc,1778675321.0,66.0,0.15625,0.355469,-9.835938,,,,,,,,,,
acc,1778675321.0,66.0,0.117188,0.355469,-9.800781,,,,,,,,,,
acc,1778675321.0,66.0,0.117188,0.355469,-9.800781,,,,,,,,,,
acc,1778675321.0,66.0,0.117188,0.355469,-9.800781,,,,,,,,,,
acc,1778675321.0,66.0,0.117188,0.355469,-9.800781,,,,,,,,,,
acc,1778675321.0,66.0,0.117188,0.355469,-9.757812,,,,,,,,,,
acc,1778675321.0,66.0,0.117188,0.394531,-9.796875,,,,,,,,,,
acc,1778675321.0,66.0,0.117188,0.355469,-9.800781,,,,,,,,,,
acc,1778675321.0,66.0,0.117188,0.355469,-9.800781,,,,,,,,,,
acc,1778675321.0,66.0,0.15625,0.355469,-9.757812,,,,,,,,,,
acc,1778675321.0,66.0,0.117188,0.355469,-9.757812,,,,,,,,,,
acc,1778675321.0,66.0,0.117188,0.394531,-9.796875,,,,,,,,,,
acc,1778675321.0,66.0,0.078125,0.394531,-9.796875,,,,,,,,,,
acc,1778675321.0,66.0,0.078125,0.355469,-9.757812,,,,,,,,,,
acc,1778675321.0,66.0,0.078125,0.355469,-9.757812,,,,,,,,,,
acc,1778675321.0,66.0,0.117188,0.394531,-9.839844,,,,,,,,,,
acc,1778675321.0,66.0,0.078125,0.355469,-9.835938,,,,,,,,,,
acc,1778675321.0,66.0,0.117188,0.355469,-9.835938,,,,,,,,,,
acc,1778675321.0,66.0,0.117188,0.355469,-9.800781,,,,,,,,,,
acc,1778675321.0,66.0,0.117188,0.355469,-9.800781,,,,,,,,,,
acc,1778675321.0,66.0,0.078125,0.394531,-9.796875,,,,,,,,,,
acc,1778675321.0,66.0,0.117188,0.394531,-9.839844,,,,,,,,,,
acc,1778675321.0,66.0,0.078125,0.394531,-9.796875,,,,,,,,,,
acc,1778675321.0,66.0,0.117188,0.394531,-9.839844,,,,,,,,,,
acc,1778675321.0,66.0,0.078125,0.394531,-9.761719,,,,,,,,,,
acc,1778675321.0,66.0,0.078125,0.394531,-9.878906,,,,,,,,,,
acc,1778675321.0,66.0,0.15625,0.355469,-9.800781,,,,,,,,,,
acc,1778675321.0,66.0,0.117188,0.355469,-9.835938,,,,,,,,,,
acc,1778675321.0,66.0,0.117188,0.355469,-9.835938,,,,,,,,,,
acc,1778675321.0,66.0,0.15625,0.355469,-9.800781,,,,,,,,,,
acc,1778675321.0,66.0,0.15625,0.394531,-9.839844,,,,,,,,,,
acc,1778675321.0,66.0,0.15625,0.394531,-9.796875,,,,,,,,,,
acc,1778675321.0,66.0,0.117188,0.394531,-9.796875,,,,,,,,,,
acc,1778675321.0,66.0,0.117188,0.394531,-9.839844,,,,,,,,,,
acc,1778675321.0,66.0,0.117188,0.355469,-9.800781,,,,,,,,,,
acc,1778675321.0,66.0,0.078125,0.355469,-9.835938,,,,,,,,,,
acc,1778675321.0,66.0,0.15625,0.355469,-9.875,,,,,,,,,,
acc,1778675321.0,66.0,0.117188,0.355469,-9.835938,,,,,,,,,,
acc,1778675321.0,66.0,0.15625,0.355469,-9.835938,,,,,,,,,,
acc,1778675321.0,66.0,0.117188,0.355469,-9.800781,,,,,,,,,,
acc,1778675321.0,66.0,0.117188,0.394531,-9.796875,,,,,,,,,,
acc,1778675321.0,66.0,0.117188,0.355469,-9.800781,,,,,,,,,,
acc,1778675321.0,66.0,0.078125,0.394531,-9.796875,,,,,,,,,,
acc,1778675321.0,66.0,0.078125,0.433594,-9.796875,,,,,,,,,,
acc,1778675321.0,66.0,0.117188,0.355469,-9.800781,,,,,,,,,,
acc,1778675321.0,66.0,0.078125,0.355469,-9.757812,,,,,,,,,,
acc,1778675321.0,66.0,0.078125,0.394531,-9.796875,,,,,,,,,,
acc,1778675321.0,66.0,0.117188,0.355469,-9.800781,,,,,,,,,,
acc,1778675321.0,66.0,0.117188,0.355469,-9.800781,,,,,,,,,,
acc,1778675321.0,66.0,0.078125,0.394531,-9.796875,,,,,,,,,,
acc,1778675321.0,66.0,0.078125,0.394531,-9.761719,,,,,,,,,,
acc,1778675321.0,66.0,0.078125,0.394531,-9.839844,,,,,,,,,,
acc,1778675321.0,66.0,0.117188,0.355469,-9.757812,,,,,,,,,,
acc,1778675321.0,66.0,0.078125,0.394531,-9.796875,,,,,,,,,,
acc,1778675321.0,66.0,0.117188,0.355469,-9.800781,,,,,,,,,,
acc,1778675321.0,66.0,0.117188,0.355469,-9.800781,,,,,,,,,,
acc,1778675321.0,66.0,0.117188,0.355469,-9.800781,,,,,,,,,,
acc,1778675321.0,66.0,0.15625,0.355469,-9.835938,,,,,,,,,,
acc,1778675321.0,66.0,0.117188,0.355469,-9.800781,,,,,,,,,,
acc,1778675321.0,66.0,0.078125,0.355469,-9.800781,,,,,,,,,,
acc,1778675321.0,66.0,0.117188,0.355469,-9.800781,,,,,,,,,,
acc,1778675321.0,66.0,0.078125,0.394531,-9.796875,,,,,,,,,,
acc,1778675321.0,66.0,0.117188,0.355469,-9.800781,,,,,,,,,,
acc,1778675321.0,66.0,0.078125,0.355469,-9.835938,,,,,,,,,,
acc,1778675321.0,66.0,0.117188,0.355469,-9.800781,,,,,,,,,,
acc,1778675321.0,66.0,0.15625,0.355469,-9.800781,,,,,,,,,,
acc,1778675321.0,66.0,0.15625,0.355469,-9.835938,,,,,,,,,,
acc,1778675321.0,66.0,0.117188,0.394531,-9.839844,,,,,,,,,,
acc,1778675321.0,66.0,0.117188,0.394531,-9.839844,,,,,,,,,,
acc,1778675321.0,66.0,0.117188,0.394531,-9.839844,,,,,,,,,,
acc,1778675321.0,66.0,0.078125,0.394531,-9.839844,,,,,,,,,,
acc,1778675321.0,66.0,0.117188,0.394531,-9.796875,,,,,,,,,,
acc,1778675321.0,66.0,0.117188,0.394531,-9.839844,,,,,,,,,,
acc,1778675321.0,66.0,0.117188,0.394531,-9.839844,,,,,,,,,,
acc,1778675321.0,66.0,0.117188,0.355469,-9.835938,,,,,,,,,,
acc,1778675321.0,66.0,0.117188,0.355469,-9.800781,,,,,,,,,,
acc,1778675321.0,66.0,0.15625,0.355469,-9.800781,,,,,,,,,,
acc,1778675321.0,66.0,0.078125,0.355469,-9.800781,,,,,,,,,,
acc,1778675321.0,66.0,0.078125,0.394531,-9.796875,,,,,,,,,,
acc,1778675321.0,66.0,0.117188,0.433594,-9.761719,,,,,,,,,,
acc,1778675321.0,66.0,0.117188,0.394531,-9.839844,,,,,,,,,,
acc,1778675321.0,66.0,0.117188,0.320312,-9.800781,,,,,,,,,,
acc,1778675322.0,67.0,0.15625,0.320312,-9.800781,,,,,,,,,,
acc,1778675322.0,67.0,0.117188,0.394531,-9.839844,,,,,,,,,,
acc,1778675322.0,67.0,0.117188,0.394531,-9.796875,,,,,,,,,,
acc,1778675322.0,67.0,0.117188,0.355469,-9.800781,,,,,,,,,,
acc,1778675321.0,66.0,0.078125,0.355469,-9.835938,,,,,,,,,,
acc,1778675321.0,66.0,0.117188,0.394531,-9.796875,,,,,,,,,,
acc,1778675321.0,66.0,0.117188,0.394531,-9.796875,,,,,,,,,,
acc,1778675321.0,66.0,0.117188,0.394531,-9.761719,,,,,,,,,,
acc,1778675321.0,66.0,0.078125,0.355469,-9.800781,,,,,,,,,,
acc,1778675321.0,66.0,0.078125,0.355469,-9.835938,,,,,,,,,,
acc,1778675321.0,66.0,0.117188,0.355469,-9.835938,,,,,,,,,,
acc,1778675321.0,66.0,0.117188,0.355469,-9.835938,,,,,,,,,,
acc,1778675321.0,66.0,0.117188,0.355469,-9.800781,,,,,,,,,,
acc,1778675321.0,66.0,0.117188,0.355469,-9.800781,,,,,,,,,,
acc,1778675321.0,66.0,0.117188,0.394531,-9.796875,,,,,,,,,,
acc,1778675321.0,66.0,0.078125,0.394531,-9.839844,,,,,,,,,,
acc,1778675321.0,66.0,0.117188,0.394531,-9.839844,,,,,,,,,,
acc,1778675321.0,66.0,0.078125,0.394531,-9.796875,,,,,,,,,,
acc,1778675321.0,66.0,0.117188,0.355469,-9.835938,,,,,,,,,,
acc,1778675321.0,66.0,0.078125,0.394531,-9.796875,,,,,,,,,,
acc,1778675321.0,66.0,0.117188,0.355469,-9.835938,,,,,,,,,,
acc,1778675321.0,66.0,0.117188,0.394531,-9.839844,,,,,,,,,,
acc,1778675321.0,66.0,0.117188,0.394531,-9.839844,,,,,,,,,,
acc,1778675321.0,66.0,0.117188,0.355469,-9.835938,,,,,,,,,,
acc,1778675321.0,66.0,0.117188,0.355469,-9.800781,,,,,,,,,,
acc,1778675321.0,66.0,0.078125,0.394531,-9.839844,,,,,,,,,,
acc,1778675321.0,66.0,0.117188,0.394531,-9.796875,,,,,,,,,,
acc,1778675321.0,66.0,0.117188,0.355469,-9.800781,,,,,,,,,,
acc,1778675321.0,66.0,0.117188,0.355469,-9.800781,,,,,,,,,,
acc,1778675321.0,66.0,0.117188,0.355469,-9.835938,,,,,,,,,,
acc,1778675321.0,66.0,0.15625,0.355469,-9.800781,,,,,,,,,,
acc,1778675321.0,66.0,0.117188,0.355469,-9.757812,,,,,,,,,,
acc,1778675321.0,66.0,0.078125,0.355469,-9.800781,,,,,,,,,,
acc,1778675321.0,66.0,0.078125,0.394531,-9.796875,,,,,,,,,,
acc,1778675321.0,66.0,0.078125,0.394531,-9.796875,,,,,,,,,,
acc,1778675321.0,66.0,0.078125,0.355469,-9.800781,,,,,,,,,,
acc,1778675321.0,66.0,0.117188,0.355469,-9.800781,,,,,,,,,,
acc,1778675321.0,66.0,0.117188,0.355469,-9.800781,,,,,,,,,,
acc,1778675321.0,66.0,0.15625,0.355469,-9.757812,,,,,,,,,,
acc,1778675321.0,66.0,0.15625,0.355469,-9.800781,,,,,,,,,,
acc,1778675321.0,66.0,0.191406,0.355469,-9.796875,,,,,,,,,,
acc,1778675321.0,66.0,0.15625,0.355469,-9.835938,,,,,,,,,,
acc,1778675321.0,66.0,0.15625,0.394531,-9.796875,,,,,,,,,,
acc,1778675321.0,66.0,0.15625,0.394531,-9.796875,,,,,,,,,,
acc,1778675321.0,66.0,0.15625,0.355469,-9.800781,,,,,,,,,,
acc,1778675321.0,66.0,0.117188,0.394531,-9.796875,,,,,,,,,,
acc,1778675321.0,66.0,0.15625,0.355469,-9.800781,,,,,,,,,,
acc,1778675321.0,66.0,0.15625,0.355469,-9.835938,,,,,,,,,,
acc,1778675321.0,66.0,0.15625,0.355469,-9.835938,,,,,,,,,,
acc,1778675321.0,66.0,0.117188,0.355469,-9.800781,,,,,,,,,,
acc,1778675321.0,66.0,0.117188,0.355469,-9.835938,,,,,,,,,,
acc,1778675321.0,66.0,0.117188,0.355469,-9.800781,,,,,,,,,,
acc,1778675321.0,66.0,0.078125,0.394531,-9.839844,,,,,,,,,,
acc,1778675321.0,66.0,0.078125,0.394531,-9.796875,,,,,,,,,,
acc,1778675321.0,66.0,0.078125,0.394531,-9.796875,,,,,,,,,,
acc,1778675321.0,66.0,0.078125,0.394531,-9.796875,,,,,,,,,,
acc,1778675321.0,66.0,0.117188,0.355469,-9.800781,,,,,,,,,,
acc,1778675321.0,66.0,0.117188,0.394531,-9.796875,,,,,,,,,,
acc,1778675321.0,66.0,0.117188,0.355469,-9.800781,,,,,,,,,,
acc,1778675321.0,66.0,0.078125,0.355469,-9.800781,,,,,,,,,,
acc,1778675321.0,66.0,0.117188,0.355469,-9.835938,,,,,,,,,,
acc,1778675321.0,66.0,0.078125,0.394531,-9.796875,,,,,,,,,,
acc,1778675321.0,66.0,0.078125,0.394531,-9.761719,,,,,,,,,,
acc,1778675321.0,66.0,0.117188,0.355469,-9.800781,,,,,,,,,,
acc,1778675321.0,66.0,0.078125,0.355469,-9.835938,,,,,,,,,,
acc,1778675321.0,66.0,0.078125,0.355469,-9.800781,,,,,,,,,,
acc,1778675321.0,66.0,0.117188,0.355469,-9.835938,,,,,,,,,,
acc,1778675321.0,66.0,0.117188,0.320312,-9.800781,,,,,,,,,,
acc,1778675321.0,66.0,0.117188,0.355469,-9.800781,,,,,,,,,,
acc,1778675321.0,66.0,0.117188,0.355469,-9.800781,,,,,,,,,,
acc,1778675321.0,66.0,0.117188,0.355469,-9.800781,,,,,,,,,,
acc,1778675321.0,66.0,0.117188,0.355469,-9.800781,,,,,,,,,,
acc,1778675321.0,66.0,0.078125,0.394531,-9.796875,,,,,,,,,,
acc,1778675321.0,66.0,0.117188,0.394531,-9.761719,,,,,,,,,,
acc,1778675321.0,66.0,0.078125,0.394531,-9.796875,,,,,,,,,,
acc,1778675321.0,66.0,0.117188,0.394531,-9.796875,,,,,,,,,,
acc,1778675321.0,66.0,0.117188,0.355469,-9.800781,,,,,,,,,,
acc,1778675321.0,66.0,0.078125,0.355469,-9.800781,,,,,,,,,,
acc,1778675321.0,66.0,0.078125,0.355469,-9.835938,,,,,,,,,,
acc,1778675321.0,66.0,0.117188,0.394531,-9.796875,,,,,,,,,,
acc,1778675321.0,66.0,0.078125,0.394531,-9.796875,,,,,,,,,,
acc,1778675321.0,66.0,0.078125,0.394531,-9.796875,,,,,,,,,,
acc,1778675321.0,66.0,0.039062,0.394531,-9.796875,,,,,,,,,,
acc,1778675321.0,66.0,0.039062,0.394531,-9.796875,,,,,,,,,,
acc,1778675321.0,66.0,0.039062,0.355469,-9.800781,,,,,,,,,,
acc,1778675321.0,66.0,0.039062,0.394531,-9.796875,,,,,,,,,,
acc,1778675321.0,66.0,0.0,0.355469,-9.800781,,,,,,,,,,
acc,1778675321.0,66.0,-0.035156,0.320312,-9.835938,,,,,,,,,,
acc,1778675321.0,66.0,0.0,0.355469,-9.757812,,,,,,,,,,
acc,1778675321.0,66.0,0.0,0.394531,-9.796875,,,,,,,,,,
acc,1778675321.0,66.0,-0.035156,0.355469,-9.757812,,,,,,,,,,
acc,1778675321.0,66.0,-0.035156,0.355469,-9.757812,,,,,,,,,,
acc,1778675321.0,66.0,-0.074219,0.394531,-9.800781,,,,,,,,,,
acc,1778675321.0,66.0,-0.035156,0.394531,-9.726562,,,,,,,,,,
acc,1778675321.0,66.0,-0.035156,0.355469,-9.757812,,,,,,,,,,
acc,1778675321.0,66.0,0.0,0.355469,-9.757812,,,,,,,,,,
acc,1778675321.0,66.0,0.0,0.355469,-9.757812,,,,,,,,,,
acc,1778675321.0,66.0,0.039062,0.355469,-9.757812,,,,,,,,,,
acc,1778675321.0,66.0,0.039062,0.355469,-9.730469,,,,,,,,,,
acc,1778675321.0,66.0,0.078125,0.394531,-9.726562,,,,,,,,,,
acc,1778675321.0,66.0,0.039062,0.355469,-9.757812,,,,,,,,,,
acc,1778675321.0,66.0,0.039062,0.355469,-9.691406,,,,,,,,,,
acc,1778675321.0,66.0,0.039062,0.355469,-9.730469,,,,,,,,,,
acc,1778675321.0,66.0,0.078125,0.355469,-9.691406,,,,,,,,,,
acc,1778675321.0,66.0,0.117188,0.355469,-9.691406,,,,,,,,,,
acc,1778675321.0,66.0,0.15625,0.355469,-9.691406,,,,,,,,,,
acc,1778675321.0,66.0,0.191406,0.355469,-9.6875,,,,,,,,,,
acc,1778675321.0,66.0,0.230469,0.355469,-9.6875,,,,,,,,,,
acc,1778675321.0,66.0,0.230469,0.355469,-9.652344,,,,,,,,,,
acc,1778675321.0,66.0,0.191406,0.355469,-9.652344,,,,,,,,,,
acc,1778675321.0,66.0,0.230469,0.394531,-9.691406,,,,,,,,,,
acc,1778675321.0,66.0,0.269531,0.394531,-9.652344,,,,,,,,,,
acc,1778675321.0,66.0,0.308594,0.394531,-9.6875,,,,,,,,,,
acc,1778675321.0,66.0,0.382812,0.394531,-9.652344,,,,,,,,,,
acc,1778675321.0,66.0,0.421875,0.355469,-9.6875,,,,,,,,,,
acc,1778675321.0,66.0,0.421875,0.394531,-9.691406,,,,,,,,,,
acc,1778675321.0,66.0,0.460938,0.355469,-9.730469,,,,,,,,,,
acc,1778675321.0,66.0,0.421875,0.355469,-9.761719,,,,,,,,,,
acc,1778675321.0,66.0,0.421875,0.394531,-9.757812,,,,,,,,,,
acc,1778675321.0,66.0,0.382812,0.394531,-9.726562,,,,,,,,,,
acc,1778675321.0,66.0,0.382812,0.433594,-9.796875,,,,,,,,,,
acc,1778675321.0,66.0,0.382812,0.394531,-9.796875,,,,,,,,,,
acc,1778675321.0,66.0,0.382812,0.394531,-9.796875,,,,,,,,,,
acc,1778675321.0,66.0,0.382812,0.394531,-9.878906,,,,,,,,,,
acc,1778675321.0,66.0,0.382812,0.394531,-9.917969,,,,,,,,,,
acc,1778675321.0,66.0,0.347656,0.394531,-9.914062,,,,,,,,,,
acc,1778675321.0,66.0,0.308594,0.394531,-9.878906,,,,,,,,,,
acc,1778675322.0,67.0,0.269531,0.433594,-9.917969,,,,,,,,,,
acc,1778675322.0,67.0,0.191406,0.433594,-9.914062,,,,,,,,,,
acc,1778675322.0,67.0,0.15625,0.394531,-9.957031,,,,,,,,,,
acc,1778675322.0,67.0,0.15625,0.394531,-9.957031,,,,,,,,,,
acc,1778675322.0,67.0,0.117188,0.394531,-9.996094,,,,,,,,,,
acc,1778675322.0,67.0,0.117188,0.394531,-9.996094,,,,,,,,,,
acc,1778675322.0,67.0,0.039062,0.394531,-10.035156,,,,,,,,,,
acc,1778675322.0,67.0,0.0,0.355469,-10.03125,,,,,,,,,,
acc,1778675322.0,67.0,0.039062,0.355469,-9.992188,,,,,,,,,,
acc,1778675322.0,67.0,-0.035156,0.355469,-10.03125,,,,,,,,,,
acc,1778675322.0,67.0,-0.074219,0.394531,-10.03125,,,,,,,,,,
acc,1778675322.0,67.0,-0.113281,0.355469,-10.074219,,,,,,,,,,
acc,1778675322.0,67.0,-0.152344,0.355469,-10.03125,,,,,,,,,,
acc,1778675322.0,67.0,-0.191406,0.355469,-10.035156,,,,,,,,,,
acc,1778675322.0,67.0,-0.191406,0.355469,-10.035156,,,,,,,,,,
acc,1778675322.0,67.0,-0.191406,0.355469,-10.035156,,,,,,,,,,
acc,1778675322.0,67.0,-0.191406,0.355469,-10.070312,,,,,,,,,,
acc,1778675322.0,67.0,-0.226562,0.320312,-9.992188,,,,,,,,,,
acc,1778675322.0,67.0,-0.226562,0.320312,-10.03125,,,,,,,,,,
acc,1778675322.0,67.0,-0.265625,0.355469,-9.996094,,,,,,,,,,
acc,1778675322.0,67.0,-0.226562,0.355469,-9.953125,,,,,,,,,,
acc,1778675322.0,67.0,-0.226562,0.355469,-9.953125,,,,,,,,,,
acc,1778675322.0,67.0,-0.226562,0.355469,-9.914062,,,,,,,,,,
acc,1778675322.0,67.0,-0.226562,0.355469,-9.914062,,,,,,,,,,
acc,1778675322.0,67.0,-0.191406,0.355469,-9.878906,,,,,,,,,,
acc,1778675322.0,67.0,-0.191406,0.355469,-9.878906,,,,,,,,,,
acc,1778675322.0,67.0,-0.152344,0.355469,-9.875,,,,,,,,,,
acc,1778675322.0,67.0,-0.113281,0.320312,-9.800781,,,,,,,,,,
acc,1778675322.0,67.0,-0.074219,0.355469,-9.796875,,,,,,,,,,
acc,1778675322.0,67.0,-0.074219,0.355469,-9.796875,,,,,,,,,,
acc,1778675322.0,67.0,-0.035156,0.394531,-9.761719,,,,,,,,,,
acc,1778675322.0,67.0,-0.035156,0.394531,-9.761719,,,,,,,,,,
acc,1778675322.0,67.0,0.039062,0.394531,-9.726562,,,,,,,,,,
acc,1778675322.0,67.0,0.078125,0.355469,-9.730469,,,,,,,,,,
acc,1778675322.0,67.0,0.078125,0.355469,-9.730469,,,,,,,,,,
acc,1778675322.0,67.0,0.15625,0.355469,-9.757812,,,,,,,,,,
acc,1778675322.0,67.0,0.15625,0.355469,-9.730469,,,,,,,,,,
acc,1778675322.0,67.0,0.191406,0.355469,-9.726562,,,,,,,,,,
acc,1778675322.0,67.0,0.230469,0.355469,-9.726562,,,,,,,,,,
acc,1778675322.0,67.0,0.230469,0.355469,-9.6875,,,,,,,,,,
acc,1778675322.0,67.0,0.230469,0.355469,-9.726562,,,,,,,,,,
acc,1778675322.0,67.0,0.269531,0.394531,-9.726562,,,,,,,,,,
acc,1778675322.0,67.0,0.269531,0.394531,-9.726562,,,,,,,,,,
acc,1778675322.0,67.0,0.269531,0.394531,-9.6875,,,,,,,,,,
acc,1778675322.0,67.0,0.308594,0.394531,-9.726562,,,,,,,,,,
acc,1778675322.0,67.0,0.308594,0.355469,-9.730469,,,,,,,,,,
acc,1778675322.0,67.0,0.308594,0.355469,-9.730469,,,,,,,,,,
acc,1778675322.0,67.0,0.308594,0.394531,-9.761719,,,,,,,,,,
acc,1778675322.0,67.0,0.269531,0.355469,-9.730469,,,,,,,,,,
acc,1778675322.0,67.0,0.269531,0.355469,-9.730469,,,,,,,,,,
acc,1778675322.0,67.0,0.230469,0.394531,-9.757812,,,,,,,,,,
acc,1778675322.0,67.0,0.230469,0.394531,-9.730469,,,,,,,,,,
acc,1778675322.0,67.0,0.230469,0.355469,-9.761719,,,,,,,,,,
acc,1778675322.0,67.0,0.230469,0.355469,-9.726562,,,,,,,,,,
acc,1778675322.0,67.0,0.230469,0.355469,-9.796875,,,,,,,,,,
acc,1778675322.0,67.0,0.191406,0.355469,-9.796875,,,,,,,,,,
acc,1778675322.0,67.0,0.230469,0.355469,-9.796875,,,,,,,,,,
acc,1778675322.0,67.0,0.15625,0.394531,-9.796875,,,,,,,,,,
acc,1778675322.0,67.0,0.15625,0.394531,-9.839844,,,,,,,,,,
acc,1778675322.0,67.0,0.117188,0.394531,-9.796875,,,,,,,,,,
acc,1778675322.0,67.0,0.078125,0.394531,-9.839844,,,,,,,,,,
acc,1778675322.0,67.0,0.039062,0.394531,-9.839844,,,,,,,,,,
acc,1778675322.0,67.0,0.039062,0.394531,-9.839844,,,,,,,,,,
acc,1778675322.0,67.0,0.0,0.394531,-9.839844,,,,,,,,,,
acc,1778675322.0,67.0,0.0,0.355469,-9.835938,,,,,,,,,,
acc,1778675322.0,67.0,-0.035156,0.355469,-9.835938,,,,,,,,,,
acc,1778675322.0,67.0,-0.035156,0.355469,-9.835938,,,,,,,,,,
acc,1778675322.0,67.0,-0.035156,0.355469,-9.835938,,,,,,,,,,
acc,1778675322.0,67.0,-0.074219,0.355469,-9.878906,,,,,,,,,,
acc,1778675322.0,67.0,-0.074219,0.355469,-9.878906,,,,,,,,,,
acc,1778675322.0,67.0,-0.074219,0.394531,-9.835938,,,,,,,,,,
acc,1778675322.0,67.0,-0.074219,0.394531,-9.835938,,,,,,,,,,
acc,1778675322.0,67.0,-0.074219,0.355469,-9.839844,,,,,,,,,,
acc,1778675322.0,67.0,-0.074219,0.355469,-9.878906,,,,,,,,,,
acc,1778675322.0,67.0,-0.074219,0.355469,-9.878906,,,,,,,,,,
acc,1778675322.0,67.0,-0.035156,0.355469,-9.835938,,,,,,,,,,
acc,1778675322.0,67.0,-0.035156,0.355469,-9.835938,,,,,,,,,,
acc,1778675322.0,67.0,-0.035156,0.355469,-9.800781,,,,,,,,,,
acc,1778675322.0,67.0,-0.035156,0.394531,-9.796875,,,,,,,,,,
acc,1778675322.0,67.0,0.0,0.394531,-9.796875,,,,,,,,,,
acc,1778675322.0,67.0,-0.035156,0.394531,-9.839844,,,,,,,,,,
acc,1778675322.0,67.0,0.0,0.355469,-9.800781,,,,,,,,,,
acc,1778675322.0,67.0,0.039062,0.355469,-9.800781,,,,,,,,,,
acc,1778675322.0,67.0,0.039062,0.355469,-9.800781,,,,,,,,,,
acc,1778675322.0,67.0,0.078125,0.355469,-9.800781,,,,,,,,,,
acc,1778675322.0,67.0,0.117188,0.355469,-9.800781,,,,,,,,,,
acc,1778675322.0,67.0,0.117188,0.355469,-9.800781,,,,,,,,,,
acc,1778675322.0,67.0,0.117188,0.355469,-9.800781,,,,,,,,,,
acc,1778675322.0,67.0,0.15625,0.355469,-9.757812,,,,,,,,,,
acc,1778675322.0,67.0,0.117188,0.394531,-9.796875,,,,,,,,,,
acc,1778675322.0,67.0,0.15625,0.394531,-9.796875,,,,,,,,,,
acc,1778675322.0,67.0,0.15625,0.394531,-9.761719,,,,,,,,,,
acc,1778675322.0,67.0,0.191406,0.394531,-9.800781,,,,,,,,,,
acc,1778675322.0,67.0,0.230469,0.355469,-9.796875,,,,,,,,,,
acc,1778675322.0,67.0,0.191406,0.355469,-9.796875,,,,,,,,,,
acc,1778675322.0,67.0,0.191406,0.355469,-9.796875,,,,,,,,,,
acc,1778675322.0,67.0,0.191406,0.394531,-9.800781,,,,,,,,,,
acc,1778675322.0,67.0,0.191406,0.355469,-9.761719,,,,,,,,,,
acc,1778675322.0,67.0,0.191406,0.394531,-9.800781,,,,,,,,,,
acc,1778675322.0,67.0,0.191406,0.394531,-9.757812,,,,,,,,,,
acc,1778675322.0,67.0,0.191406,0.394531,-9.800781,,,,,,,,,,
acc,1778675322.0,67.0,0.191406,0.355469,-9.796875,,,,,,,,,,
acc,1778675322.0,67.0,0.15625,0.355469,-9.800781,,,,,,,,,,
acc,1778675322.0,67.0,0.191406,0.355469,-9.796875,,,,,,,,,,
acc,1778675322.0,67.0,0.191406,0.355469,-9.796875,,,,,,,,,,
acc,1778675322.0,67.0,0.191406,0.355469,-9.761719,,,,,,,,,,
acc,1778675322.0,67.0,0.15625,0.355469,-9.835938,,,,,,,,,,
acc,1778675322.0,67.0,0.117188,0.394531,-9.796875,,,,,,,,,,
acc,1778675322.0,67.0,0.117188,0.394531,-9.839844,,,,,,,,,,
acc,1778675322.0,67.0,0.078125,0.355469,-9.835938,,,,,,,,,,
acc,1778675322.0,67.0,0.078125,0.394531,-9.796875,,,,,,,,,,
acc,1778675322.0,67.0,0.039062,0.394531,-9.796875,,,,,,,,,,
acc,1778675322.0,67.0,0.039062,0.355469,-9.835938,,,,,,,,,,
acc,1778675322.0,67.0,0.039062,0.355469,-9.835938,,,,,,,,,,
acc,1778675322.0,67.0,0.039062,0.355469,-9.835938,,,,,,,,,,
acc,1778675322.0,67.0,0.0,0.355469,-9.800781,,,,,,,,,,
acc,1778675322.0,67.0,0.0,0.355469,-9.800781,,,,,,,,,,
acc,1778675322.0,67.0,0.0,0.355469,-9.835938,,,,,,,,,,
acc,1778675322.0,67.0,0.0,0.394531,-9.839844,,,,,,,,,,
acc,1778675322.0,67.0,-0.035156,0.394531,-9.839844,,,,,,,,,,
acc,1778675322.0,67.0,-0.035156,0.355469,-9.835938,,,,,,,,,,
acc,1778675322.0,67.0,0.0,0.355469,-9.835938,,,,,,,,,,
acc,1778675322.0,67.0,0.0,0.355469,-9.800781,,,,,,,,,,
acc,1778675322.0,67.0,0.0,0.355469,-9.835938,,,,,,,,,,
acc,1778675322.0,67.0,0.0,0.355469,-9.835938,,,,,,,,,,
acc,1778675322.0,67.0,0.0,0.355469,-9.835938,,,,,,,,,,
acc,1778675322.0,67.0,0.0,0.394531,-9.839844,,,,,,,,,,
acc,1778675322.0,67.0,0.0,0.394531,-9.796875,,,,,,,,,,
acc,1778675323.0,68.0,0.0,0.394531,-9.839844,,,,,,,,,,
acc,1778675323.0,68.0,0.0,0.394531,-9.839844,,,,,,,,,,
acc,1778675323.0,68.0,0.039062,0.394531,-9.796875,,,,,,,,,,
acc,1778675323.0,68.0,0.039062,0.355469,-9.835938,,,,,,,,,,
acc,1778675323.0,68.0,0.078125,0.355469,-9.835938,,,,,,,,,,
acc,1778675323.0,68.0,0.078125,0.394531,-9.839844,,,,,,,,,,
acc,1778675323.0,68.0,0.078125,0.355469,-9.800781,,,,,,,,,,
acc,1778675323.0,68.0,0.078125,0.355469,-9.800781,,,,,,,,,,
acc,1778675323.0,68.0,0.078125,0.355469,-9.800781,,,,,,,,,,
acc,1778675323.0,68.0,0.117188,0.355469,-9.800781,,,,,,,,,,
acc,1778675323.0,68.0,0.117188,0.355469,-9.800781,,,,,,,,,,
acc,1778675323.0,68.0,0.15625,0.394531,-9.796875,,,,,,,,,,
acc,1778675323.0,68.0,0.15625,0.394531,-9.761719,,,,,,,,,,
acc,1778675323.0,68.0,0.15625,0.355469,-9.800781,,,,,,,,,,
acc,1778675323.0,68.0,0.15625,0.394531,-9.839844,,,,,,,,,,
acc,1778675323.0,68.0,0.15625,0.355469,-9.800781,,,,,,,,,,
acc,1778675323.0,68.0,0.191406,0.355469,-9.796875,,,,,,,,,,
acc,1778675323.0,68.0,0.117188,0.394531,-9.761719,,,,,,,,,,
acc,1778675323.0,68.0,0.15625,0.394531,-9.796875,,,,,,,,,,
acc,1778675323.0,68.0,0.117188,0.394531,-9.796875,,,,,,,,,,
acc,1778675323.0,68.0,0.15625,0.394531,-9.796875,,,,,,,,,,
acc,1778675323.0,68.0,0.15625,0.394531,-9.796875,,,,,,,,,,
acc,1778675323.0,68.0,0.15625,0.394531,-9.796875,,,,,,,,,,
acc,1778675323.0,68.0,0.15625,0.355469,-9.800781,,,,,,,,,,
acc,1778675323.0,68.0,0.117188,0.394531,-9.796875,,,,,,,,,,
acc,1778675323.0,68.0,0.117188,0.355469,-9.800781,,,,,,,,,,
acc,1778675323.0,68.0,0.078125,0.355469,-9.800781,,,,,,,,,,
acc,1778675323.0,68.0,0.078125,0.394531,-9.796875,,,,,,,,,,
acc,1778675323.0,68.0,0.078125,0.394531,-9.796875,,,,,,,,,,
acc,1778675323.0,68.0,0.078125,0.394531,-9.796875,,,,,,,,,,
acc,1778675323.0,68.0,0.039062,0.394531,-9.796875,,,,,,,,,,
acc,1778675323.0,68.0,0.078125,0.355469,-9.800781,,,,,,,,,,
acc,1778675323.0,68.0,0.078125,0.355469,-9.835938,,,,,,,,,,
acc,1778675323.0,68.0,0.039062,0.355469,-9.800781,,,,,,,,,,
acc,1778675323.0,68.0,0.039062,0.355469,-9.835938,,,,,,,,,,
acc,1778675323.0,68.0,0.039062,0.355469,-9.835938,,,,,,,,,,
acc,1778675323.0,68.0,0.039062,0.355469,-9.835938,,,,,,,,,,
acc,1778675323.0,68.0,0.0,0.355469,-9.835938,,,,,,,,,,
acc,1778675323.0,68.0,0.0,0.394531,-9.839844,,,,,,,,,,
acc,1778675323.0,68.0,0.0,0.355469,-9.800781,,,,,,,,,,
acc,1778675323.0,68.0,0.0,0.355469,-9.800781,,,,,,,,,,
acc,1778675323.0,68.0,0.039062,0.355469,-9.835938,,,,,,,,,,
acc,1778675323.0,68.0,0.039062,0.355469,-9.835938,,,,,,,,,,
acc,1778675323.0,68.0,0.039062,0.355469,-9.835938,,,,,,,,,,
acc,1778675323.0,68.0,0.039062,0.355469,-9.835938,,,,,,,,,,
acc,1778675323.0,68.0,0.039062,0.355469,-9.835938,,,,,,,,,,
acc,1778675323.0,68.0,0.039062,0.355469,-9.800781,,,,,,,,,,
acc,1778675323.0,68.0,0.039062,0.355469,-9.800781,,,,,,,,,,
acc,1778675323.0,68.0,0.039062,0.355469,-9.800781,,,,,,,,,,
acc,1778675323.0,68.0,0.039062,0.394531,-9.839844,,,,,,,,,,
acc,1778675323.0,68.0,0.039062,0.355469,-9.800781,,,,,,,,,,
acc,1778675323.0,68.0,0.117188,0.355469,-9.800781,,,,,,,,,,
acc,1778675323.0,68.0,0.078125,0.355469,-9.800781,,,,,,,,,,
acc,1778675323.0,68.0,0.117188,0.355469,-9.835938,,,,,,,,,,
acc,1778675323.0,68.0,0.117188,0.355469,-9.800781,,,,,,,,,,
acc,1778675323.0,68.0,0.117188,0.394531,-9.796875,,,,,,,,,,
acc,1778675323.0,68.0,0.078125,0.355469,-9.757812,,,,,,,,,,
acc,1778675323.0,68.0,0.078125,0.355469,-9.800781,,,,,,,,,,
acc,1778675323.0,68.0,0.117188,0.394531,-9.796875,,,,,,,,,,
acc,1778675323.0,68.0,0.117188,0.394531,-9.796875,,,,,,,,,,
acc,1778675323.0,68.0,0.117188,0.355469,-9.800781,,,,,,,,,,
acc,1778675323.0,68.0,0.117188,0.355469,-9.800781,,,,,,,,,,
acc,1778675323.0,68.0,0.15625,0.355469,-9.800781,,,,,,,,,,
acc,1778675323.0,68.0,0.15625,0.355469,-9.800781,,,,,,,,,,
acc,1778675323.0,68.0,0.15625,0.355469,-9.800781,,,,,,,,,,
acc,1778675323.0,68.0,0.117188,0.394531,-9.761719,,,,,,,,,,
acc,1778675323.0,68.0,0.117188,0.394531,-9.796875,,,,,,,,,,
acc,1778675323.0,68.0,0.117188,0.394531,-9.796875,,,,,,,,,,
acc,1778675323.0,68.0,0.117188,0.394531,-9.796875,,,,,,,,,,
acc,1778675323.0,68.0,0.117188,0.394531,-9.796875,,,,,,,,,,
acc,1778675323.0,68.0,0.117188,0.394531,-9.796875,,,,,,,,,,
acc,1778675323.0,68.0,0.078125,0.394531,-9.839844,,,,,,,,,,
acc,1778675323.0,68.0,0.15625,0.355469,-9.800781,,,,,,,,,,
acc,1778675323.0,68.0,0.078125,0.355469,-9.800781,,,,,,,,,,
acc,1778675323.0,68.0,0.078125,0.394531,-9.796875,,,,,,,,,,
acc,1778675323.0,68.0,0.078125,0.433594,-9.796875,,,,,,,,,,
acc,1778675323.0,68.0,0.078125,0.394531,-9.796875,,,,,,,,,,
acc,1778675323.0,68.0,0.078125,0.394531,-9.796875,,,,,,,,,,
acc,1778675323.0,68.0,0.078125,0.394531,-9.796875,,,,,,,,,,
acc,1778675323.0,68.0,0.078125,0.394531,-9.796875,,,,,,,,,,
acc,1778675323.0,68.0,0.078125,0.355469,-9.835938,,,,,,,,,,
acc,1778675323.0,68.0,0.078125,0.355469,-9.835938,,,,,,,,,,
acc,1778675323.0,68.0,0.078125,0.394531,-9.796875,,,,,,,,,,
acc,1778675323.0,68.0,0.039062,0.355469,-9.800781,,,,,,,,,,
acc,1778675323.0,68.0,0.039062,0.394531,-9.796875,,,,,,,,,,
acc,1778675323.0,68.0,0.039062,0.394531,-9.796875,,,,,,,,,,
acc,1778675323.0,68.0,0.0,0.355469,-9.835938,,,,,,,,,,
acc,1778675323.0,68.0,0.039062,0.355469,-9.800781,,,,,,,,,,
acc,1778675323.0,68.0,0.039062,0.355469,-9.800781,,,,,,,,,,
acc,1778675323.0,68.0,0.039062,0.355469,-9.800781,,,,,,,,,,
acc,1778675323.0,68.0,0.078125,0.355469,-9.835938,,,,,,,,,,
acc,1778675323.0,68.0,0.078125,0.355469,-9.875,,,,,,,,,,
acc,1778675323.0,68.0,0.039062,0.355469,-9.800781,,,,,,,,,,
acc,1778675323.0,68.0,0.039062,0.355469,-9.800781,,,,,,,,,,
acc,1778675323.0,68.0,0.039062,0.394531,-9.796875,,,,,,,,,,
acc,1778675323.0,68.0,0.039062,0.355469,-9.800781,,,,,,,,,,
acc,1778675323.0,68.0,0.078125,0.355469,-9.800781,,,,,,,,,,
acc,1778675323.0,68.0,0.078125,0.355469,-9.800781,,,,,,,,,,
acc,1778675323.0,68.0,0.078125,0.355469,-9.800781,,,,,,,,,,
acc,1778675323.0,68.0,0.117188,0.355469,-9.800781,,,,,,,,,,
acc,1778675323.0,68.0,0.117188,0.355469,-9.800781,,,,,,,,,,
acc,1778675323.0,68.0,0.078125,0.355469,-9.835938,,,,,,,,,,
acc,1778675323.0,68.0,0.117188,0.355469,-9.800781,,,,,,,,,,
acc,1778675323.0,68.0,0.117188,0.355469,-9.800781,,,,,,,,,,
acc,1778675323.0,68.0,0.078125,0.394531,-9.839844,,,,,,,,,,
acc,1778675323.0,68.0,0.117188,0.394531,-9.796875,,,,,,,,,,
acc,1778675323.0,68.0,0.117188,0.355469,-9.800781,,,,,,,,,,
acc,1778675323.0,68.0,0.117188,0.355469,-9.800781,,,,,,,,,,
acc,1778675323.0,68.0,0.117188,0.394531,-9.796875,,,,,,,,,,
acc,1778675323.0,68.0,0.15625,0.355469,-9.800781,,,,,,,,,,
acc,1778675323.0,68.0,0.117188,0.355469,-9.800781,,,,,,,,,,
acc,1778675323.0,68.0,0.117188,0.355469,-9.800781,,,,,,,,,,
acc,1778675323.0,68.0,0.117188,0.394531,-9.796875,,,,,,,,,,
acc,1778675323.0,68.0,0.117188,0.394531,-9.796875,,,,,,,,,,
acc,1778675323.0,68.0,0.117188,0.394531,-9.796875,,,,,,,,,,
acc,1778675323.0,68.0,0.117188,0.394531,-9.796875,,,,,,,,,,
acc,1778675323.0,68.0,0.117188,0.394531,-9.796875,,,,,,,,,,
acc,1778675323.0,68.0,0.117188,0.355469,-9.835938,,,,,,,,,,
acc,1778675323.0,68.0,0.117188,0.355469,-9.800781,,,,,,,,,,
acc,1778675323.0,68.0,0.117188,0.355469,-9.800781,,,,,,,,,,
acc,1778675323.0,68.0,0.117188,0.355469,-9.835938,,,,,,,,,,
acc,1778675323.0,68.0,0.117188,0.355469,-9.800781,,,,,,,,,,
acc,1778675323.0,68.0,0.078125,0.394531,-9.796875,,,,,,,,,,
acc,1778675323.0,68.0,0.078125,0.394531,-9.839844,,,,,,,,,,
acc,1778675323.0,68.0,0.078125,0.394531,-9.839844,,,,,,,,,,
acc,1778675323.0,68.0,0.078125,0.394531,-9.839844,,,,,,,,,,
acc,1778675323.0,68.0,0.117188,0.394531,-9.761719,,,,,,,,,,
acc,1778675324.0,69.0,0.039062,0.394531,-9.839844,,,,,,,,,,
acc,1778675324.0,69.0,0.117188,0.394531,-9.878906,,,,,,,,,,
acc,1778675324.0,69.0,0.078125,0.433594,-9.761719,,,,,,,,,,
acc,1778675324.0,69.0,0.078125,0.355469,-9.914062,,,,,,,,,,
acc,1778675324.0,69.0,0.039062,0.433594,-9.761719,,,,,,,,,,
acc,1778675324.0,69.0,0.039062,0.394531,-9.796875,,,,,,,,,,
acc,1778675324.0,69.0,-0.035156,0.433594,-9.761719,,,,,,,,,,
acc,1778675324.0,69.0,0.0,0.433594,-9.796875,,,,,,,,,,
acc,1778675324.0,69.0,-0.035156,0.394531,-9.726562,,,,,,,,,,
acc,1778675324.0,69.0,0.0,0.394531,-9.878906,,,,,,,,,,
acc,1778675324.0,69.0,0.0,0.394531,-9.6875,,,,,,,,,,
acc,1778675324.0,69.0,0.0,0.320312,-9.800781,,,,,,,,,,
acc,1778675324.0,69.0,0.0,0.394531,-9.6875,,,,,,,,,,
acc,1778675324.0,69.0,-0.074219,0.355469,-9.6875,,,,,,,,,,
acc,1778675324.0,69.0,-0.113281,0.355469,-9.691406,,,,,,,,,,
acc,1778675324.0,69.0,-0.113281,0.394531,-9.652344,,,,,,,,,,
acc,1778675324.0,69.0,-0.191406,0.355469,-9.6875,,,,,,,,,,
acc,1778675324.0,69.0,-0.265625,0.394531,-9.691406,,,,,,,,,,
acc,1778675324.0,69.0,-0.34375,0.355469,-9.691406,,,,,,,,,,
acc,1778675324.0,69.0,-0.382812,0.320312,-9.691406,,,,,,,,,,
acc,1778675324.0,69.0,-0.496094,0.320312,-9.648438,,,,,,,,,,
acc,1778675324.0,69.0,-0.648438,0.472656,-9.6875,,,,,,,,,,
acc,1778675324.0,69.0,-0.996094,0.394531,-9.496094,,,,,,,,,,
acc,1778675324.0,69.0,-1.261719,0.28125,-9.796875,,,,,,,,,,
acc,1778675324.0,69.0,-1.414062,0.320312,-9.761719,,,,,,,,,,
acc,1778675324.0,69.0,-1.800781,0.320312,-9.613281,,,,,,,,,,
acc,1778675324.0,69.0,-2.027344,0.320312,-9.917969,,,,,,,,,,
acc,1778675324.0,69.0,-2.257812,0.242188,-9.53125,,,,,,,,,,
acc,1778675324.0,69.0,-2.488281,0.242188,-9.835938,,,,,,,,,,
acc,1778675324.0,69.0,-2.71875,0.242188,-9.914062,,,,,,,,,,
acc,1778675324.0,69.0,-2.910156,0.203125,-9.730469,,,,,,,,,,
acc,1778675324.0,69.0,-3.101562,0.203125,-9.953125,,,,,,,,,,
acc,1778675324.0,69.0,-3.214844,0.128906,-9.878906,,,,,,,,,,
acc,1778675324.0,69.0,-3.40625,0.128906,-9.800781,,,,,,,,,,
acc,1778675324.0,69.0,-3.753906,0.128906,-9.917969,,,,,,,,,,
acc,1778675324.0,69.0,-4.175781,0.089844,-9.992188,,,,,,,,,,
acc,1778675324.0,69.0,-4.25,0.089844,-9.953125,,,,,,,,,,
acc,1778675324.0,69.0,-4.289062,0.089844,-9.875,,,,,,,,,,
acc,1778675324.0,69.0,-4.367188,0.089844,-10.074219,,,,,,,,,,
acc,1778675324.0,69.0,-4.328125,0.089844,-9.875,,,,,,,,,,
acc,1778675324.0,69.0,-4.671875,0.089844,-9.957031,,,,,,,,,,
acc,1778675324.0,69.0,-4.824219,0.089844,-10.179688,,,,,,,,,,
acc,1778675324.0,69.0,-5.09375,0.089844,-9.914062,,,,,,,,,,
acc,1778675324.0,69.0,-5.246094,0.164062,-10.222656,,,,,,,,,,
acc,1778675324.0,69.0,-5.285156,0.164062,-9.996094,,,,,,,,,,
acc,1778675324.0,69.0,-5.363281,0.203125,-10.113281,,,,,,,,,,
acc,1778675324.0,69.0,-5.476562,0.203125,-10.035156,,,,,,,,,,
acc,1778675324.0,69.0,-5.554688,0.203125,-10.183594,,,,,,,,,,
acc,1778675324.0,69.0,-5.707031,0.164062,-10.035156,,,,,,,,,,
acc,1778675324.0,69.0,-5.746094,0.203125,-10.179688,,,,,,,,,,
acc,1778675324.0,69.0,-5.78125,0.128906,-10.070312,,,,,,,,,,
acc,1778675324.0,69.0,-5.78125,0.164062,-10.109375,,,,,,,,,,
acc,1778675324.0,69.0,-5.859375,0.164062,-10.109375,,,,,,,,,,
acc,1778675324.0,69.0,-6.011719,0.203125,-9.957031,,,,,,,,,,
acc,1778675324.0,69.0,-6.089844,0.203125,-10.152344,,,,,,,,,,
acc,1778675324.0,69.0,-6.089844,0.242188,-10.070312,,,,,,,,,,
acc,1778675324.0,69.0,-6.089844,0.28125,-10.113281,,,,,,,,,,
acc,1778675324.0,69.0,-6.089844,0.203125,-10.035156,,,,,,,,,,
acc,1778675324.0,69.0,-6.011719,0.203125,-10.113281,,,,,,,,,,
acc,1778675324.0,69.0,-5.972656,0.203125,-10.070312,,,,,,,,,,
acc,1778675324.0,69.0,-6.011719,0.164062,-10.113281,,,,,,,,,,
acc,1778675324.0,69.0,-5.972656,0.128906,-10.21875,,,,,,,,,,
acc,1778675324.0,69.0,-5.898438,0.203125,-10.109375,,,,,,,,,,
acc,1778675324.0,69.0,-5.898438,0.164062,-10.183594,,,,,,,,,,
acc,1778675324.0,69.0,-5.9375,0.203125,-10.179688,,,,,,,,,,
acc,1778675324.0,69.0,-5.9375,0.203125,-10.179688,,,,,,,,,,
acc,1778675324.0,69.0,-6.011719,0.128906,-10.148438,,,,,,,,,,
acc,1778675324.0,69.0,-6.011719,0.203125,-10.179688,,,,,,,,,,
acc,1778675324.0,69.0,-6.050781,0.203125,-10.109375,,,,,,,,,,
acc,1778675324.0,69.0,-6.128906,0.128906,-10.109375,,,,,,,,,,
acc,1778675324.0,69.0,-6.203125,0.128906,-10.179688,,,,,,,,,,
acc,1778675324.0,69.0,-6.203125,0.128906,-10.035156,,,,,,,,,,
acc,1778675324.0,69.0,-6.28125,0.164062,-10.148438,,,,,,,,,,
acc,1778675324.0,69.0,-6.242188,0.203125,-10.03125,,,,,,,,,,
acc,1778675324.0,69.0,-6.242188,0.203125,-10.03125,,,,,,,,,,
acc,1778675324.0,69.0,-6.242188,0.203125,-9.992188,,,,,,,,,,
acc,1778675324.0,69.0,-6.203125,0.089844,-9.996094,,,,,,,,,,
acc,1778675324.0,69.0,-6.128906,0.050781,-9.917969,,,,,,,,,,
acc,1778675324.0,69.0,-6.089844,0.050781,-9.957031,,,,,,,,,,
acc,1778675324.0,69.0,-6.203125,0.089844,-9.878906,,,,,,,,,,
acc,1778675324.0,69.0,-6.164062,0.128906,-9.917969,,,,,,,,,,
acc,1778675324.0,69.0,-6.164062,0.050781,-9.835938,,,,,,,,,,
acc,1778675324.0,69.0,-6.128906,0.089844,-9.835938,,,,,,,,,,
acc,1778675324.0,69.0,-6.203125,0.089844,-9.761719,,,,,,,,,,
acc,1778675324.0,69.0,-6.242188,0.089844,-9.726562,,,,,,,,,,
acc,1778675324.0,69.0,-6.164062,0.089844,-9.761719,,,,,,,,,,
acc,1778675324.0,69.0,-6.128906,0.089844,-9.691406,,,,,,,,,,
acc,1778675324.0,69.0,-6.128906,0.050781,-9.726562,,,,,,,,,,
acc,1778675324.0,69.0,-6.203125,0.011719,-9.613281,,,,,,,,,,
acc,1778675324.0,69.0,-6.164062,0.011719,-9.6875,,,,,,,,,,
acc,1778675324.0,69.0,-6.128906,-0.027344,-9.613281,,,,,,,,,,
acc,1778675324.0,69.0,-6.089844,0.050781,-9.652344,,,,,,,,,,
acc,1778675324.0,69.0,-6.089844,-0.027344,-9.652344,,,,,,,,,,
acc,1778675324.0,69.0,-6.164062,-0.027344,-9.574219,,,,,,,,,,
acc,1778675324.0,69.0,-6.128906,-0.0625,-9.6875,,,,,,,,,,
acc,1778675324.0,69.0,-6.089844,-0.0625,-9.652344,,,,,,,,,,
acc,1778675324.0,69.0,-6.128906,0.011719,-9.609375,,,,,,,,,,
acc,1778675324.0,69.0,-6.128906,-0.101562,-9.535156,,,,,,,,,,
acc,1778675324.0,69.0,-6.164062,-0.0625,-9.609375,,,,,,,,,,
acc,1778675324.0,69.0,-6.203125,0.050781,-9.648438,,,,,,,,,,
acc,1778675324.0,69.0,-6.203125,-0.027344,-9.648438,,,,,,,,,,
acc,1778675324.0,69.0,-6.164062,0.050781,-9.609375,,,,,,,,,,
acc,1778675324.0,69.0,-6.128906,0.011719,-9.691406,,,,,,,,,,
acc,1778675324.0,69.0,-6.164062,-0.0625,-9.648438,,,,,,,,,,
acc,1778675324.0,69.0,-6.164062,0.050781,-9.757812,,,,,,,,,,
acc,1778675324.0,69.0,-6.164062,0.050781,-9.730469,,,,,,,,,,
acc,1778675324.0,69.0,-6.164062,0.011719,-9.839844,,,,,,,,,,
acc,1778675324.0,69.0,-6.089844,0.089844,-9.757812,,,,,,,,,,
acc,1778675324.0,69.0,-6.089844,0.050781,-9.839844,,,,,,,,,,
acc,1778675324.0,69.0,-6.128906,0.050781,-9.839844,,,,,,,,,,
acc,1778675324.0,69.0,-6.089844,0.164062,-9.796875,,,,,,,,,,
acc,1778675324.0,69.0,-6.164062,0.089844,-9.839844,,,,,,,,,,
acc,1778675324.0,69.0,-6.050781,0.128906,-9.878906,,,,,,,,,,
acc,1778675324.0,69.0,-6.050781,0.164062,-9.835938,,,,,,,,,,
acc,1778675324.0,69.0,-6.164062,0.164062,-9.875,,,,,,,,,,
acc,1778675324.0,69.0,-6.128906,0.089844,-9.992188,,,,,,,,,,
acc,1778675324.0,69.0,-6.050781,0.128906,-9.917969,,,,,,,,,,
acc,1778675324.0,69.0,-6.089844,0.128906,-9.953125,,,,,,,,,,
acc,1778675324.0,69.0,-6.089844,0.164062,-9.917969,,,,,,,,,,
acc,1778675324.0,69.0,-6.164062,0.128906,-9.957031,,,,,,,,,,
acc,1778675324.0,69.0,-6.128906,0.050781,-10.070312,,,,,,,,,,
acc,1778675324.0,69.0,-6.128906,0.011719,-9.800781,,,,,,,,,,
acc,1778675324.0,69.0,-6.089844,0.050781,-10.113281,,,,,,,,,,
acc,1778675324.0,69.0,-5.972656,0.128906,-9.914062,,,,,,,,,,
acc,1778675324.0,69.0,-6.089844,0.128906,-9.914062,,,,,,,,,,
acc,1778675324.0,69.0,-6.128906,0.050781,-9.996094,,,,,,,,,,
acc,1778675325.0,70.0,-6.128906,0.164062,-9.957031,,,,,,,,,,
acc,1778675325.0,70.0,-6.089844,0.203125,-9.878906,,,,,,,,,,
acc,1778675325.0,70.0,-6.011719,0.128906,-9.953125,,,,,,,,,,
acc,1778675325.0,70.0,-6.089844,0.164062,-9.878906,,,,,,,,,,
acc,1778675325.0,70.0,-6.128906,0.050781,-9.957031,,,,,,,,,,
acc,1778675325.0,70.0,-6.164062,0.128906,-9.878906,,,,,,,,,,
acc,1778675325.0,70.0,-6.050781,0.203125,-9.835938,,,,,,,,,,
acc,1778675325.0,70.0,-5.972656,0.089844,-9.835938,,,,,,,,,,
acc,1778675325.0,70.0,-6.128906,0.011719,-9.800781,,,,,,,,,,
acc,1778675325.0,70.0,-6.164062,0.050781,-9.875,,,,,,,,,,
acc,1778675325.0,70.0,-6.242188,0.128906,-9.761719,,,,,,,,,,
acc,1778675325.0,70.0,-5.9375,0.320312,-9.730469,,,,,,,,,,
acc,1778675325.0,70.0,-6.050781,0.28125,-9.648438,,,,,,,,,,
acc,1778675325.0,70.0,-6.011719,0.355469,-9.730469,,,,,,,,,,
acc,1778675325.0,70.0,-6.128906,0.433594,-9.6875,,,,,,,,,,
acc,1778675325.0,70.0,-6.128906,0.242188,-9.726562,,,,,,,,,,
acc,1778675325.0,70.0,-6.011719,0.242188,-9.957031,,,,,,,,,,
acc,1778675325.0,70.0,-6.011719,0.203125,-9.761719,,,,,,,,,,
acc,1778675325.0,70.0,-6.050781,0.203125,-9.953125,,,,,,,,,,
acc,1778675325.0,70.0,-5.9375,0.28125,-9.878906,,,,,,,,,,
acc,1778675325.0,70.0,-5.9375,0.242188,-9.878906,,,,,,,,,,
acc,1778675325.0,70.0,-6.050781,0.28125,-9.953125,,,,,,,,,,
acc,1778675325.0,70.0,-6.128906,0.394531,-9.878906,,,,,,,,,,
acc,1778675325.0,70.0,-6.128906,0.472656,-9.835938,,,,,,,,,,
acc,1778675325.0,70.0,-6.011719,0.355469,-9.953125,,,,,,,,,,
acc,1778675325.0,70.0,-5.898438,0.550781,-9.953125,,,,,,,,,,
acc,1778675325.0,70.0,-6.011719,0.433594,-9.878906,,,,,,,,,,
acc,1778675325.0,70.0,-6.089844,0.355469,-9.914062,,,,,,,,,,
acc,1778675325.0,70.0,-6.164062,0.242188,-9.835938,,,,,,,,,,
acc,1778675325.0,70.0,-6.128906,0.128906,-9.875,,,,,,,,,,
acc,1778675325.0,70.0,-6.050781,0.242188,-9.835938,,,,,,,,,,
acc,1778675325.0,70.0,-6.089844,0.394531,-9.917969,,,,,,,,,,
acc,1778675325.0,70.0,-6.164062,0.28125,-9.914062,,,,,,,,,,
acc,1778675325.0,70.0,-6.203125,0.242188,-9.914062,,,,,,,,,,
acc,1778675325.0,70.0,-6.203125,0.203125,-10.074219,,,,,,,,,,
acc,1778675325.0,70.0,-6.128906,0.164062,-9.796875,,,,,,,,,,
acc,1778675325.0,70.0,-6.242188,0.242188,-9.835938,,,,,,,,,,
acc,1778675325.0,70.0,-6.128906,0.242188,-9.917969,,,,,,,,,,
acc,1778675325.0,70.0,-6.128906,0.320312,-9.730469,,,,,,,,,,
acc,1778675325.0,70.0,-5.972656,0.433594,-9.917969,,,,,,,,,,
acc,1778675325.0,70.0,-6.089844,0.28125,-9.726562,,,,,,,,,,
acc,1778675325.0,70.0,-6.164062,0.242188,-9.875,,,,,,,,,,
acc,1778675325.0,70.0,-6.164062,0.320312,-9.761719,,,,,,,,,,
acc,1778675325.0,70.0,-6.128906,0.320312,-9.609375,,,,,,,,,,
acc,1778675325.0,70.0,-6.050781,0.355469,-9.761719,,,,,,,,,,
acc,1778675325.0,70.0,-6.011719,0.203125,-9.6875,,,,,,,,,,
acc,1778675325.0,70.0,-6.011719,0.089844,-9.648438,,,,,,,,,,
acc,1778675325.0,70.0,-5.972656,0.089844,-9.574219,,,,,,,,,,
acc,1778675325.0,70.0,-6.203125,0.011719,-9.570312,,,,,,,,,,
acc,1778675325.0,70.0,-6.128906,-0.027344,-9.613281,,,,,,,,,,
acc,1778675325.0,70.0,-5.898438,-0.179688,-9.613281,,,,,,,,,,
acc,1778675325.0,70.0,-6.011719,-0.410156,-9.613281,,,,,,,,,,
acc,1778675325.0,70.0,-6.089844,-0.523438,-9.691406,,,,,,,,,,
acc,1778675325.0,70.0,-6.203125,-0.601562,-9.730469,,,,,,,,,,
acc,1778675325.0,70.0,-6.164062,-0.253906,-9.691406,,,,,,,,,,
acc,1778675325.0,70.0,-6.128906,-0.179688,-9.609375,,,,,,,,,,
acc,1778675325.0,70.0,-6.089844,-0.101562,-9.839844,,,,,,,,,,
acc,1778675325.0,70.0,-6.164062,-0.101562,-9.914062,,,,,,,,,,
acc,1778675325.0,70.0,-6.242188,-0.0625,-9.757812,,,,,,,,,,
acc,1778675325.0,70.0,-6.242188,-0.21875,-9.648438,,,,,,,,,,
acc,1778675325.0,70.0,-6.164062,-0.253906,-9.609375,,,,,,,,,,
acc,1778675325.0,70.0,-6.089844,-0.21875,-9.652344,,,,,,,,,,
acc,1778675325.0,70.0,-6.050781,-0.445312,-9.757812,,,,,,,,,,
acc,1778675325.0,70.0,-6.050781,-0.484375,-9.878906,,,,,,,,,,
acc,1778675325.0,70.0,-6.242188,-0.179688,-9.761719,,,,,,,,,,
acc,1778675325.0,70.0,-6.164062,0.050781,-9.992188,,,,,,,,,,
acc,1778675325.0,70.0,-6.011719,0.011719,-9.875,,,,,,,,,,
acc,1778675325.0,70.0,-6.164062,-0.101562,-9.757812,,,,,,,,,,
acc,1778675325.0,70.0,-6.128906,-0.0625,-10.113281,,,,,,,,,,
acc,1778675325.0,70.0,-5.972656,0.164062,-9.761719,,,,,,,,,,
acc,1778675325.0,70.0,-6.203125,0.394531,-9.648438,,,,,,,,,,
acc,1778675325.0,70.0,-6.203125,0.242188,-10.148438,,,,,,,,,,
acc,1778675325.0,70.0,-6.089844,0.050781,-9.726562,,,,,,,,,,
acc,1778675325.0,70.0,-6.203125,0.089844,-9.839844,,,,,,,,,,
acc,1778675325.0,70.0,-6.164062,0.320312,-9.957031,,,,,,,,,,
acc,1778675325.0,70.0,-5.972656,0.625,-9.761719,,,,,,,,,,
acc,1778675325.0,70.0,-6.011719,0.664062,-10.070312,,,,,,,,,,
acc,1778675325.0,70.0,-6.050781,0.585938,-10.03125,,,,,,,,,,
acc,1778675325.0,70.0,-6.203125,0.777344,-10.074219,,,,,,,,,,
acc,1778675325.0,70.0,-6.203125,1.007812,-10.074219,,,,,,,,,,
acc,1778675325.0,70.0,-6.128906,1.125,-10.113281,,,,,,,,,,
acc,1778675325.0,70.0,-6.089844,0.816406,-9.953125,,,,,,,,,,
acc,1778675325.0,70.0,-6.164062,0.550781,-10.03125,,,,,,,,,,
acc,1778675325.0,70.0,-6.28125,0.433594,-10.03125,,,,,,,,,,
acc,1778675325.0,70.0,-6.28125,0.355469,-10.035156,,,,,,,,,,
acc,1778675325.0,70.0,-6.359375,0.28125,-9.953125,,,,,,,,,,
acc,1778675325.0,70.0,-6.28125,0.320312,-10.152344,,,,,,,,,,
acc,1778675325.0,70.0,-6.320312,0.320312,-10.074219,,,,,,,,,,
acc,1778675325.0,70.0,-6.433594,0.320312,-10.035156,,,,,,,,,,
acc,1778675325.0,70.0,-6.585938,0.050781,-9.992188,,,,,,,,,,
acc,1778675325.0,70.0,-6.433594,-0.101562,-9.875,,,,,,,,,,
acc,1778675325.0,70.0,-6.394531,-0.179688,-9.796875,,,,,,,,,,
acc,1778675325.0,70.0,-6.472656,-0.179688,-9.691406,,,,,,,,,,
acc,1778675325.0,70.0,-6.664062,-0.027344,-9.648438,,,,,,,,,,
acc,1778675325.0,70.0,-6.472656,0.203125,-9.6875,,,,,,,,,,
acc,1778675325.0,70.0,-6.320312,0.472656,-9.574219,,,,,,,,,,
acc,1778675325.0,70.0,-6.242188,0.320312,-9.796875,,,,,,,,,,
acc,1778675325.0,70.0,-6.359375,0.089844,-9.417969,,,,,,,,,,
acc,1778675325.0,70.0,-5.972656,-0.21875,-9.652344,,,,,,,,,,
acc,1778675325.0,70.0,-5.859375,-0.101562,-9.691406,,,,,,,,,,
acc,1778675325.0,70.0,-5.972656,-0.21875,-9.796875,,,,,,,,,,
acc,1778675325.0,70.0,-6.089844,0.128906,-9.609375,,,,,,,,,,
acc,1778675325.0,70.0,-5.820312,0.242188,-9.996094,,,,,,,,,,
acc,1778675325.0,70.0,-5.707031,-0.027344,-9.570312,,,,,,,,,,
acc,1778675325.0,70.0,-5.667969,-0.140625,-9.800781,,,,,,,,,,
acc,1778675325.0,70.0,-6.050781,-0.253906,-9.648438,,,,,,,,,,
acc,1778675325.0,70.0,-6.089844,-0.101562,-9.6875,,,,,,,,,,
acc,1778675325.0,70.0,-5.859375,-0.179688,-9.6875,,,,,,,,,,
acc,1778675325.0,70.0,-5.898438,0.011719,-9.535156,,,,,,,,,,
acc,1778675325.0,70.0,-6.089844,0.585938,-9.726562,,,,,,,,,,
acc,1778675325.0,70.0,-5.972656,0.511719,-9.800781,,,,,,,,,,
acc,1778675325.0,70.0,-5.746094,0.433594,-9.6875,,,,,,,,,,
acc,1778675325.0,70.0,-5.746094,0.472656,-10.257812,,,,,,,,,,
acc,1778675325.0,70.0,-5.589844,0.394531,-9.839844,,,,,,,,,,
acc,1778675325.0,70.0,-5.4375,0.742188,-9.957031,,,,,,,,,,
acc,1778675325.0,70.0,-5.707031,0.511719,-9.953125,,,,,,,,,,
acc,1778675325.0,70.0,-6.089844,0.28125,-10.070312,,,,,,,,,,
acc,1778675325.0,70.0,-6.164062,0.203125,-10.148438,,,,,,,,,,
acc,1778675325.0,70.0,-6.433594,0.664062,-10.074219,,,,,,,,,,
acc,1778675325.0,70.0,-6.550781,0.625,-10.5625,,,,,,,,,,
acc,1778675325.0,70.0,-6.433594,0.433594,-10.183594,,,,,,,,,,
acc,1778675325.0,70.0,-6.28125,0.355469,-9.957031,,,,,,,,,,
acc,1778675325.0,70.0,-6.128906,-0.0625,-9.839844,,,,,,,,,,
acc,1778675325.0,70.0,-6.203125,-0.179688,-9.613281,,,,,,,,,,
acc,1778675325.0,70.0,-6.28125,0.164062,-9.914062,,,,,,,,,,
acc,1778675325.0,70.0,-5.9375,-0.027344,-9.6875,,,,,,,,,,
acc,1778675325.0,70.0,-5.746094,-0.371094,-9.570312,,,,,,,,,,
acc,1778675326.0,71.0,-5.515625,-0.410156,-9.53125,,,,,,,,,,
acc,1778675326.0,71.0,-5.554688,-0.753906,-9.375,,,,,,,,,,
acc,1778675326.0,71.0,-5.476562,-0.753906,-9.34375,,,,,,,,,,
acc,1778675326.0,71.0,-5.707031,-0.371094,-9.1875,,,,,,,,,,
acc,1778675326.0,71.0,-5.859375,0.28125,-9.835938,,,,,,,,,,
acc,1778675326.0,71.0,-5.9375,0.320312,-9.191406,,,,,,,,,,
acc,1778675326.0,71.0,-5.78125,0.511719,-9.613281,,,,,,,,,,
acc,1778675326.0,71.0,-6.128906,0.203125,-9.308594,,,,,,,,,,
acc,1778675326.0,71.0,-6.050781,0.089844,-9.726562,,,,,,,,,,
acc,1778675326.0,71.0,-6.164062,0.203125,-9.574219,,,,,,,,,,
acc,1778675326.0,71.0,-6.164062,0.050781,-9.914062,,,,,,,,,,
acc,1778675326.0,71.0,-6.511719,0.433594,-9.917969,,,,,,,,,,
acc,1778675326.0,71.0,-6.164062,0.433594,-10.148438,,,,,,,,,,
acc,1778675326.0,71.0,-5.972656,0.089844,-9.875,,,,,,,,,,
acc,1778675326.0,71.0,-6.089844,0.164062,-9.761719,,,,,,,,,,
acc,1778675326.0,71.0,-6.242188,0.242188,-9.992188,,,,,,,,,,
acc,1778675326.0,71.0,-6.203125,0.164062,-9.453125,,,,,,,,,,
acc,1778675326.0,71.0,-6.472656,0.28125,-10.070312,,,,,,,,,,
acc,1778675326.0,71.0,-6.242188,0.550781,-10.074219,,,,,,,,,,
acc,1778675326.0,71.0,-6.511719,0.855469,-10.492188,,,,,,,,,,
acc,1778675326.0,71.0,-7.125,1.085938,-10.53125,,,,,,,,,,
acc,1778675326.0,71.0,-7.125,0.625,-11.027344,,,,,,,,,,
acc,1778675326.0,71.0,-6.933594,0.472656,-10.640625,,,,,,,,,,
acc,1778675326.0,71.0,-6.816406,0.355469,-10.148438,,,,,,,,,,
acc,1778675326.0,71.0,-6.511719,-0.371094,-9.878906,,,,,,,,,,
acc,1778675326.0,71.0,-6.203125,-0.636719,-10.03125,,,,,,,,,,
acc,1778675326.0,71.0,-6.585938,-0.601562,-9.453125,,,,,,,,,,
acc,1778675326.0,71.0,-6.585938,-0.714844,-10.148438,,,,,,,,,,
acc,1778675326.0,71.0,-6.242188,0.089844,-9.839844,,,,,,,,,,
acc,1778675326.0,71.0,-5.859375,-0.027344,-9.875,,,,,,,,,,
acc,1778675326.0,71.0,-6.050781,0.394531,-10.375,,,,,,,,,,
acc,1778675326.0,71.0,-6.011719,0.28125,-10.222656,,,,,,,,,,
acc,1778675326.0,71.0,-6.242188,0.011719,-10.296875,,,,,,,,,,
acc,1778675326.0,71.0,-6.28125,0.128906,-10.535156,,,,,,,,,,
acc,1778675326.0,71.0,-6.089844,-0.253906,-10.261719,,,,,,,,,,
acc,1778675326.0,71.0,-6.242188,0.164062,-10.109375,,,,,,,,,,
acc,1778675326.0,71.0,-6.128906,0.855469,-9.730469,,,,,,,,,,
acc,1778675326.0,71.0,-5.589844,0.625,-9.917969,,,,,,,,,,
acc,1778675326.0,71.0,-5.667969,0.320312,-9.648438,,,,,,,,,,
acc,1778675326.0,71.0,-5.972656,0.011719,-9.953125,,,,,,,,,,
acc,1778675326.0,71.0,-6.203125,0.355469,-9.957031,,,,,,,,,,
acc,1778675326.0,71.0,-5.746094,0.164062,-10.035156,,,,,,,,,,
acc,1778675326.0,71.0,-5.628906,0.394531,-10.070312,,,,,,,,,,
acc,1778675326.0,71.0,-5.859375,0.164062,-10.074219,,,,,,,,,,
acc,1778675326.0,71.0,-6.050781,-0.140625,-10.296875,,,,,,,,,,
acc,1778675326.0,71.0,-5.820312,0.164062,-9.996094,,,,,,,,,,
acc,1778675326.0,71.0,-5.707031,-0.027344,-9.917969,,,,,,,,,,
acc,1778675326.0,71.0,-6.050781,0.28125,-9.574219,,,,,,,,,,
acc,1778675326.0,71.0,-5.972656,0.550781,-9.570312,,,,,,,,,,
acc,1778675326.0,71.0,-5.78125,0.242188,-9.730469,,,,,,,,,,
acc,1778675326.0,71.0,-5.820312,0.164062,-9.378906,,,,,,,,,,
acc,1778675326.0,71.0,-5.9375,0.242188,-9.652344,,,,,,,,,,
acc,1778675326.0,71.0,-5.859375,-0.0625,-9.375,,,,,,,,,,
acc,1778675326.0,71.0,-5.859375,-0.21875,-9.453125,,,,,,,,,,
acc,1778675326.0,71.0,-5.78125,-0.179688,-9.34375,,,,,,,,,,
acc,1778675326.0,71.0,-5.820312,-0.636719,-9.796875,,,,,,,,,,
acc,1778675326.0,71.0,-6.089844,-0.21875,-9.496094,,,,,,,,,,
acc,1778675326.0,71.0,-6.242188,0.203125,-9.800781,,,,,,,,,,
acc,1778675326.0,71.0,-6.242188,0.320312,-10.035156,,,,,,,,,,
acc,1778675326.0,71.0,-6.472656,0.472656,-9.835938,,,,,,,,,,
acc,1778675326.0,71.0,-6.242188,0.550781,-10.453125,,,,,,,,,,
acc,1778675326.0,71.0,-6.011719,0.28125,-9.996094,,,,,,,,,,
acc,1778675326.0,71.0,-6.089844,-0.140625,-9.992188,,,,,,,,,,
acc,1778675326.0,71.0,-6.433594,-0.332031,-9.914062,,,,,,,,,,
acc,1778675326.0,71.0,-6.089844,-0.675781,-10.414062,,,,,,,,,,
acc,1778675326.0,71.0,-6.359375,-0.445312,-9.730469,,,,,,,,,,
acc,1778675326.0,71.0,-6.511719,-0.332031,-10.152344,,,,,,,,,,
acc,1778675326.0,71.0,-6.472656,0.011719,-10.03125,,,,,,,,,,
acc,1778675326.0,71.0,-6.394531,0.28125,-10.109375,,,,,,,,,,
acc,1778675326.0,71.0,-6.664062,0.089844,-9.996094,,,,,,,,,,
acc,1778675326.0,71.0,-6.664062,0.089844,-10.296875,,,,,,,,,,
acc,1778675326.0,71.0,-6.433594,-0.21875,-10.335938,,,,,,,,,,
acc,1778675326.0,71.0,-6.472656,-0.179688,-9.992188,,,,,,,,,,
acc,1778675326.0,71.0,-6.242188,-0.179688,-10.339844,,,,,,,,,,
acc,1778675326.0,71.0,-6.128906,0.089844,-10.53125,,,,,,,,,,
acc,1778675326.0,71.0,-6.433594,0.472656,-9.878906,,,,,,,,,,
acc,1778675326.0,71.0,-6.320312,0.472656,-10.453125,,,,,,,,,,
acc,1778675326.0,71.0,-6.203125,0.703125,-9.691406,,,,,,,,,,
acc,1778675326.0,71.0,-5.9375,-0.027344,-10.113281,,,,,,,,,,
acc,1778675326.0,71.0,-6.242188,-0.179688,-9.570312,,,,,,,,,,
acc,1778675326.0,71.0,-6.511719,0.011719,-9.875,,,,,,,,,,
acc,1778675326.0,71.0,-6.242188,-0.101562,-9.914062,,,,,,,,,,
acc,1778675326.0,71.0,-5.972656,0.050781,-10.070312,,,,,,,,,,
acc,1778675326.0,71.0,-6.050781,0.089844,-9.957031,,,,,,,,,,
acc,1778675326.0,71.0,-6.359375,0.28125,-9.648438,,,,,,,,,,
acc,1778675326.0,71.0,-6.089844,0.585938,-10.152344,,,,,,,,,,
acc,1778675326.0,71.0,-6.050781,0.433594,-9.835938,,,,,,,,,,
acc,1778675326.0,71.0,-6.128906,0.433594,-9.726562,,,,,,,,,,
acc,1778675326.0,71.0,-6.089844,0.203125,-9.761719,,,,,,,,,,
acc,1778675326.0,71.0,-5.859375,0.203125,-9.800781,,,,,,,,,,
acc,1778675326.0,71.0,-6.203125,0.355469,-9.457031,,,,,,,,,,
acc,1778675326.0,71.0,-5.898438,0.320312,-9.878906,,,,,,,,,,
acc,1778675326.0,71.0,-6.011719,0.011719,-9.492188,,,,,,,,,,
acc,1778675326.0,71.0,-6.089844,0.089844,-9.648438,,,,,,,,,,
acc,1778675326.0,71.0,-6.089844,0.050781,-9.652344,,,,,,,,,,
acc,1778675326.0,71.0,-6.089844,0.433594,-9.726562,,,,,,,,,,
acc,1778675326.0,71.0,-5.9375,0.625,-9.6875,,,,,,,,,,
acc,1778675326.0,71.0,-5.972656,0.355469,-9.53125,,,,,,,,,,
acc,1778675326.0,71.0,-6.242188,0.128906,-9.839844,,,,,,,,,,
acc,1778675326.0,71.0,-6.28125,0.394531,-9.609375,,,,,,,,,,
acc,1778675326.0,71.0,-5.898438,0.625,-9.835938,,,,,,,,,,
acc,1778675326.0,71.0,-5.898438,0.320312,-9.613281,,,,,,,,,,
acc,1778675326.0,71.0,-5.9375,0.355469,-9.53125,,,,,,,,,,
acc,1778675326.0,71.0,-6.320312,0.050781,-9.761719,,,,,,,,,,
acc,1778675326.0,71.0,-6.011719,0.203125,-9.726562,,,,,,,,,,
acc,1778675326.0,71.0,-6.011719,0.089844,-9.757812,,,,,,,,,,
acc,1778675326.0,71.0,-6.164062,0.128906,-9.652344,,,,,,,,,,
acc,1778675326.0,71.0,-5.972656,-0.027344,-9.726562,,,,,,,,,,
acc,1778675326.0,71.0,-6.164062,0.011719,-9.652344,,,,,,,,,,
acc,1778675326.0,71.0,-6.128906,0.164062,-9.652344,,,,,,,,,,
acc,1778675326.0,71.0,-5.972656,0.128906,-9.953125,,,,,,,,,,
acc,1778675326.0,71.0,-6.320312,0.242188,-9.417969,,,,,,,,,,
acc,1778675326.0,71.0,-5.972656,0.050781,-10.113281,,,,,,,,,,
acc,1778675326.0,71.0,-6.128906,0.28125,-9.496094,,,,,,,,,,
acc,1778675326.0,71.0,-5.972656,0.625,-10.070312,,,,,,,,,,
acc,1778675326.0,71.0,-6.128906,0.242188,-9.917969,,,,,,,,,,
acc,1778675326.0,71.0,-5.859375,0.128906,-9.839844,,,,,,,,,,
acc,1778675326.0,71.0,-6.089844,0.011719,-9.757812,,,,,,,,,,
acc,1778675326.0,71.0,-6.320312,-0.0625,-9.652344,,,,,,,,,,
acc,1778675326.0,71.0,-5.9375,0.011719,-9.875,,,,,,,,,,
acc,1778675326.0,71.0,-6.050781,0.128906,-9.6875,,,,,,,,,,
acc,1778675326.0,71.0,-6.089844,-0.0625,-9.917969,,,,,,,,,,
acc,1778675326.0,71.0,-6.394531,-0.027344,-9.914062,,,,,,,,,,
acc,1778675326.0,71.0,-6.089844,-0.140625,-10.03125,,,,,,,,,,
acc,1778675326.0,71.0,-6.203125,-0.101562,-9.730469,,,,,,,,,,
acc,1778675326.0,71.0,-6.242188,-0.179688,-9.6875,,,,,,,,,,
acc,1778675326.0,71.0,-6.128906,-0.179688,-9.757812,,,,,,,,,,
acc,1778675326.0,71.0,-6.242188,-0.101562,-9.414062,,,,,,,,,,
acc,1778675327.0,72.0,-6.050781,-0.027344,-9.992188,,,,,,,,,,
acc,1778675327.0,72.0,-6.433594,-0.253906,-9.414062,,,,,,,,,,
acc,1778675327.0,72.0,-6.164062,-0.253906,-9.875,,,,,,,,,,
acc,1778675327.0,72.0,-6.359375,-0.179688,-9.796875,,,,,,,,,,
acc,1778675327.0,72.0,-6.128906,0.128906,-9.875,,,,,,,,,,
acc,1778675327.0,72.0,-6.164062,0.128906,-9.996094,,,,,,,,,,
acc,1778675327.0,72.0,-6.089844,-0.140625,-10.03125,,,,,,,,,,
acc,1778675327.0,72.0,-6.28125,-0.027344,-9.953125,,,,,,,,,,
acc,1778675327.0,72.0,-6.511719,0.355469,-9.757812,,,,,,,,,,
acc,1778675327.0,72.0,-6.011719,0.355469,-10.074219,,,,,,,,,,
acc,1778675327.0,72.0,-6.011719,0.242188,-10.035156,,,,,,,,,,
acc,1778675327.0,72.0,-5.859375,0.050781,-9.914062,,,,,,,,,,
acc,1778675327.0,72.0,-6.203125,-0.101562,-9.992188,,,,,,,,,,
acc,1778675327.0,72.0,-5.972656,0.011719,-9.953125,,,,,,,,,,
acc,1778675327.0,72.0,-6.242188,-0.371094,-9.691406,,,,,,,,,,
acc,1778675327.0,72.0,-5.972656,-0.753906,-9.957031,,,,,,,,,,
acc,1778675327.0,72.0,-6.433594,-0.792969,-9.304688,,,,,,,,,,
acc,1778675327.0,72.0,-6.128906,-0.601562,-9.726562,,,,,,,,,,
acc,1778675327.0,72.0,-6.164062,-0.484375,-9.6875,,,,,,,,,,
acc,1778675327.0,72.0,-6.28125,-0.101562,-9.347656,,,,,,,,,,
acc,1778675327.0,72.0,-6.050781,-0.027344,-10.03125,,,,,,,,,,
acc,1778675327.0,72.0,-6.242188,0.320312,-9.34375,,,,,,,,,,
acc,1778675327.0,72.0,-5.746094,0.128906,-10.03125,,,,,,,,,,
acc,1778675327.0,72.0,-6.011719,-0.027344,-9.378906,,,,,,,,,,
acc,1778675327.0,72.0,-5.746094,-0.0625,-9.796875,,,,,,,,,,
acc,1778675327.0,72.0,-6.359375,-0.0625,-9.414062,,,,,,,,,,
acc,1778675327.0,72.0,-5.898438,0.011719,-9.917969,,,,,,,,,,
acc,1778675327.0,72.0,-5.972656,-0.523438,-9.375,,,,,,,,,,
acc,1778675327.0,72.0,-5.628906,-0.253906,-9.761719,,,,,,,,,,
acc,1778675327.0,72.0,-5.859375,-0.410156,-9.648438,,,,,,,,,,
acc,1778675327.0,72.0,-5.78125,-0.027344,-10.109375,,,,,,,,,,
acc,1778675327.0,72.0,-6.203125,0.777344,-9.730469,,,,,,,,,,
acc,1778675327.0,72.0,-6.050781,0.394531,-10.074219,,,,,,,,,,
acc,1778675327.0,72.0,-6.28125,0.320312,-9.496094,,,,,,,,,,
acc,1778675327.0,72.0,-5.78125,0.28125,-10.074219,,,,,,,,,,
acc,1778675327.0,72.0,-6.164062,-0.636719,-9.230469,,,,,,,,,,
acc,1778675327.0,72.0,-5.707031,-0.792969,-9.417969,,,,,,,,,,
acc,1778675327.0,72.0,-5.628906,-1.097656,-9.1875,,,,,,,,,,
acc,1778675327.0,72.0,-5.78125,-0.753906,-9.53125,,,,,,,,,,
acc,1778675327.0,72.0,-5.9375,-0.0625,-9.726562,,,,,,,,,,
acc,1778675327.0,72.0,-5.78125,-0.0625,-9.691406,,,,,,,,,,
acc,1778675327.0,72.0,-6.242188,0.128906,-9.726562,,,,,,,,,,
acc,1778675327.0,72.0,-6.242188,-0.0625,-9.914062,,,,,,,,,,
acc,1778675327.0,72.0,-6.050781,0.050781,-9.757812,,,,,,,,,,
acc,1778675327.0,72.0,-5.898438,-0.0625,-9.800781,,,,,,,,,,
acc,1778675327.0,72.0,-6.089844,-0.027344,-9.726562,,,,,,,,,,
acc,1778675327.0,72.0,-6.011719,-0.21875,-10.296875,,,,,,,,,,
acc,1778675327.0,72.0,-6.050781,0.128906,-9.726562,,,,,,,,,,
acc,1778675327.0,72.0,-6.164062,-0.0625,-10.109375,,,,,,,,,,
acc,1778675327.0,72.0,-6.011719,-0.21875,-10.113281,,,,,,,,,,
acc,1778675327.0,72.0,-5.589844,-0.179688,-10.183594,,,,,,,,,,
acc,1778675327.0,72.0,-5.589844,-0.292969,-10.222656,,,,,,,,,,
acc,1778675327.0,72.0,-5.167969,0.011719,-10.074219,,,,,,,,,,
acc,1778675327.0,72.0,-4.75,0.011719,-10.109375,,,,,,,,,,
acc,1778675327.0,72.0,-4.402344,0.203125,-9.917969,,,,,,,,,,
acc,1778675327.0,72.0,-4.097656,0.128906,-10.339844,,,,,,,,,,
acc,1778675327.0,72.0,-3.789062,0.011719,-10.257812,,,,,,,,,,
acc,1778675327.0,72.0,-3.523438,0.089844,-10.03125,,,,,,,,,,
acc,1778675327.0,72.0,-3.332031,-0.027344,-10.414062,,,,,,,,,,
acc,1778675327.0,72.0,-2.910156,0.128906,-10.222656,,,,,,,,,,
acc,1778675327.0,72.0,-2.757812,0.089844,-9.796875,,,,,,,,,,
acc,1778675327.0,72.0,-2.410156,-0.027344,-10.148438,,,,,,,,,,
acc,1778675327.0,72.0,-2.21875,-0.292969,-9.835938,,,,,,,,,,
acc,1778675327.0,72.0,-2.066406,-0.332031,-10.070312,,,,,,,,,,
acc,1778675327.0,72.0,-2.027344,-0.179688,-9.957031,,,,,,,,,,
acc,1778675327.0,72.0,-1.605469,-0.027344,-9.796875,,,,,,,,,,
acc,1778675327.0,72.0,-1.339844,0.355469,-9.53125,,,,,,,,,,
acc,1778675327.0,72.0,-1.03125,0.128906,-9.34375,,,,,,,,,,
acc,1778675327.0,72.0,-1.300781,0.320312,-9.570312,,,,,,,,,,
acc,1778675327.0,72.0,-1.414062,0.128906,-9.457031,,,,,,,,,,
acc,1778675327.0,72.0,-1.53125,-0.027344,-9.375,,,,,,,,,,
acc,1778675327.0,72.0,-1.644531,0.011719,-9.535156,,,,,,,,,,
acc,1778675327.0,72.0,-1.800781,0.011719,-9.378906,,,,,,,,,,
acc,1778675327.0,72.0,-1.761719,0.320312,-9.074219,,,,,,,,,,
acc,1778675327.0,72.0,-1.570312,0.28125,-9.226562,,,,,,,,,,
acc,1778675327.0,72.0,-1.378906,0.394531,-9.152344,,,,,,,,,,
acc,1778675327.0,72.0,-1.378906,0.164062,-9.035156,,,,,,,,,,
acc,1778675327.0,72.0,-0.996094,0.011719,-9.574219,,,,,,,,,,
acc,1778675327.0,72.0,-1.070312,0.089844,-9.304688,,,,,,,,,,
acc,1778675327.0,72.0,-1.109375,0.203125,-9.609375,,,,,,,,,,
acc,1778675327.0,72.0,-1.148438,0.089844,-9.613281,,,,,,,,,,
acc,1778675327.0,72.0,-1.03125,-0.140625,-9.417969,,,,,,,,,,
acc,1778675327.0,72.0,-1.03125,-0.027344,-9.453125,,,,,,,,,,
acc,1778675327.0,72.0,-1.1875,0.164062,-9.378906,,,,,,,,,,
acc,1778675327.0,72.0,-1.339844,0.242188,-9.6875,,,,,,,,,,
acc,1778675327.0,72.0,-1.492188,0.011719,-9.726562,,,,,,,,,,
acc,1778675327.0,72.0,-1.492188,-0.0625,-9.691406,,,,,,,,,,
acc,1778675327.0,72.0,-1.570312,-0.027344,-10.070312,,,,,,,,,,
acc,1778675327.0,72.0,-1.605469,-0.0625,-9.6875,,,,,,,,,,
acc,1778675327.0,72.0,-1.800781,-0.140625,-9.878906,,,,,,,,,,
acc,1778675327.0,72.0,-1.835938,-0.140625,-9.878906,,,,,,,,,,
acc,1778675327.0,72.0,-1.914062,-0.101562,-9.875,,,,,,,,,,
acc,1778675327.0,72.0,-1.914062,0.011719,-9.996094,,,,,,,,,,
acc,1778675327.0,72.0,-2.105469,0.28125,-9.761719,,,,,,,,,,
acc,1778675327.0,72.0,-2.410156,0.355469,-10.222656,,,,,,,,,,
acc,1778675327.0,72.0,-2.679688,0.28125,-10.070312,,,,,,,,,,
acc,1778675327.0,72.0,-2.910156,0.242188,-10.257812,,,,,,,,,,
acc,1778675327.0,72.0,-3.292969,-0.332031,-10.414062,,,,,,,,,,
acc,1778675327.0,72.0,-3.484375,-0.0625,-10.261719,,,,,,,,,,
acc,1778675327.0,72.0,-3.789062,0.011719,-10.300781,,,,,,,,,,
acc,1778675327.0,72.0,-3.753906,0.089844,-10.222656,,,,,,,,,,
acc,1778675327.0,72.0,-3.753906,0.164062,-10.453125,,,,,,,,,,
acc,1778675327.0,72.0,-3.789062,0.011719,-10.375,,,,,,,,,,
acc,1778675327.0,72.0,-3.445312,-0.101562,-10.375,,,,,,,,,,
acc,1778675327.0,72.0,-3.253906,-0.21875,-10.453125,,,,,,,,,,
acc,1778675327.0,72.0,-3.101562,-0.292969,-10.335938,,,,,,,,,,
acc,1778675327.0,72.0,-2.988281,-0.253906,-10.453125,,,,,,,,,,
acc,1778675327.0,72.0,-2.832031,-0.410156,-10.300781,,,,,,,,,,
acc,1778675327.0,72.0,-2.792969,-0.484375,-10.417969,,,,,,,,,,
acc,1778675327.0,72.0,-2.871094,-0.332031,-10.375,,,,,,,,,,
acc,1778675327.0,72.0,-2.757812,0.203125,-10.375,,,,,,,,,,
acc,1778675327.0,72.0,-2.679688,0.585938,-10.457031,,,,,,,,,,
acc,1778675327.0,72.0,-2.601562,0.742188,-10.375,,,,,,,,,,
acc,1778675327.0,72.0,-2.566406,0.625,-10.457031,,,,,,,,,,
acc,1778675327.0,72.0,-2.601562,0.089844,-10.222656,,,,,,,,,,
acc,1778675327.0,72.0,-2.566406,-0.410156,-10.070312,,,,,,,,,,
acc,1778675327.0,72.0,-2.488281,-0.523438,-10.179688,,,,,,,,,,
acc,1778675327.0,72.0,-2.296875,-0.21875,-9.996094,,,,,,,,,,
acc,1778675327.0,72.0,-2.183594,0.164062,-9.800781,,,,,,,,,,
acc,1778675327.0,72.0,-2.066406,0.164062,-9.878906,,,,,,,,,,
acc,1778675327.0,72.0,-1.914062,-0.179688,-9.796875,,,,,,,,,,
acc,1778675327.0,72.0,-1.875,-0.253906,-9.875,,,,,,,,,,
acc,1778675327.0,72.0,-1.761719,-0.371094,-9.6875,,,,,,,,,,
acc,1778675327.0,72.0,-1.644531,-0.371094,-9.609375,,,,,,,,,,
acc,1778675327.0,72.0,-1.53125,-0.21875,-9.414062,,,,,,,,,,
acc,1778675327.0,72.0,-1.109375,-0.292969,-9.453125,,,,,,,,,,
acc,1778675327.0,72.0,-0.765625,-0.0625,-9.414062,,,,,,,,,,
acc,1778675327.0,72.0,-0.726562,-0.0625,-9.570312,,,,,,,,,,
acc,1778675328.0,73.0,-0.804688,0.050781,-9.375,,,,,,,,,,
acc,1778675328.0,73.0,-0.765625,0.433594,-9.730469,,,,,,,,,,
acc,1778675328.0,73.0,-0.613281,0.472656,-9.609375,,,,,,,,,,
acc,1778675328.0,73.0,-0.496094,0.355469,-9.609375,,,,,,,,,,
acc,1778675328.0,73.0,-0.265625,0.164062,-9.691406,,,,,,,,,,
acc,1778675328.0,73.0,-0.226562,0.203125,-9.417969,,,,,,,,,,
acc,1778675328.0,73.0,0.0,0.203125,-9.308594,,,,,,,,,,
acc,1778675328.0,73.0,0.230469,0.355469,-9.496094,,,,,,,,,,
acc,1778675328.0,73.0,0.15625,0.585938,-9.269531,,,,,,,,,,
acc,1778675328.0,73.0,0.191406,0.511719,-9.570312,,,,,,,,,,
acc,1778675328.0,73.0,0.191406,0.433594,-9.414062,,,,,,,,,,
acc,1778675328.0,73.0,0.308594,0.320312,-9.609375,,,,,,,,,,
acc,1778675328.0,73.0,0.421875,0.242188,-9.375,,,,,,,,,,
acc,1778675328.0,73.0,0.691406,0.011719,-9.1875,,,,,,,,,,
acc,1778675328.0,73.0,0.691406,0.164062,-9.414062,,,,,,,,,,
acc,1778675328.0,73.0,0.691406,0.128906,-9.226562,,,,,,,,,,
acc,1778675328.0,73.0,0.613281,0.128906,-9.304688,,,,,,,,,,
acc,1778675328.0,73.0,0.539062,0.164062,-9.535156,,,,,,,,,,
acc,1778675328.0,73.0,0.539062,0.242188,-9.878906,,,,,,,,,,
acc,1778675328.0,73.0,0.574219,0.433594,-9.609375,,,,,,,,,,
acc,1778675328.0,73.0,0.574219,0.433594,-9.574219,,,,,,,,,,
acc,1778675328.0,73.0,0.652344,0.050781,-9.652344,,,,,,,,,,
acc,1778675328.0,73.0,0.730469,-0.21875,-9.414062,,,,,,,,,,
acc,1778675328.0,73.0,0.921875,-0.21875,-9.53125,,,,,,,,,,
acc,1778675328.0,73.0,0.84375,-0.140625,-9.730469,,,,,,,,,,
acc,1778675328.0,73.0,0.804688,0.585938,-9.800781,,,,,,,,,,
acc,1778675328.0,73.0,0.804688,0.816406,-9.917969,,,,,,,,,,
acc,1778675328.0,73.0,0.84375,0.933594,-10.261719,,,,,,,,,,
acc,1778675328.0,73.0,0.882812,0.703125,-9.839844,,,,,,,,,,
acc,1778675328.0,73.0,0.882812,0.511719,-9.875,,,,,,,,,,
acc,1778675328.0,73.0,0.960938,0.089844,-9.800781,,,,,,,,,,
acc,1778675328.0,73.0,1.035156,-0.101562,-9.570312,,,,,,,,,,
acc,1778675328.0,73.0,0.804688,0.320312,-9.839844,,,,,,,,,,
acc,1778675328.0,73.0,0.691406,0.433594,-10.148438,,,,,,,,,,
acc,1778675328.0,73.0,0.691406,0.550781,-9.992188,,,,,,,,,,
acc,1778675328.0,73.0,0.730469,0.355469,-9.957031,,,,,,,,,,
acc,1778675328.0,73.0,1.035156,0.011719,-10.148438,,,,,,,,,,
acc,1778675328.0,73.0,1.226562,-0.140625,-9.730469,,,,,,,,,,
acc,1778675328.0,73.0,1.152344,-0.292969,-9.878906,,,,,,,,,,
acc,1778675328.0,73.0,1.152344,-0.179688,-10.03125,,,,,,,,,,
acc,1778675328.0,73.0,1.074219,-0.101562,-10.109375,,,,,,,,,,
acc,1778675328.0,73.0,1.265625,-0.371094,-10.074219,,,,,,,,,,
acc,1778675328.0,73.0,1.457031,-0.179688,-9.953125,,,,,,,,,,
acc,1778675328.0,73.0,1.457031,0.28125,-9.726562,,,,,,,,,,
acc,1778675328.0,73.0,1.648438,0.355469,-9.839844,,,,,,,,,,
acc,1778675328.0,73.0,1.648438,0.242188,-9.835938,,,,,,,,,,
acc,1778675328.0,73.0,1.378906,0.128906,-10.074219,,,,,,,,,,
acc,1778675328.0,73.0,1.265625,0.089844,-10.261719,,,,,,,,,,
acc,1778675328.0,73.0,1.417969,0.011719,-10.21875,,,,,,,,,,
acc,1778675328.0,73.0,1.417969,-0.0625,-10.113281,,,,,,,,,,
acc,1778675328.0,73.0,1.570312,0.355469,-9.691406,,,,,,,,,,
acc,1778675328.0,73.0,1.570312,0.96875,-9.652344,,,,,,,,,,
acc,1778675328.0,73.0,1.609375,0.855469,-9.726562,,,,,,,,,,
acc,1778675328.0,73.0,1.726562,0.394531,-9.6875,,,,,,,,,,
acc,1778675328.0,73.0,1.800781,0.050781,-9.757812,,,,,,,,,,
acc,1778675328.0,73.0,1.839844,0.050781,-9.652344,,,,,,,,,,
acc,1778675328.0,73.0,1.917969,-0.179688,-9.757812,,,,,,,,,,
acc,1778675328.0,73.0,1.992188,-0.027344,-9.574219,,,,,,,,,,
acc,1778675328.0,73.0,1.917969,0.164062,-9.613281,,,,,,,,,,
acc,1778675328.0,73.0,1.726562,0.164062,-9.726562,,,,,,,,,,
acc,1778675328.0,73.0,1.6875,0.511719,-9.757812,,,,,,,,,,
acc,1778675328.0,73.0,1.726562,0.433594,-9.796875,,,,,,,,,,
acc,1778675328.0,73.0,1.800781,0.320312,-9.652344,,,,,,,,,,
acc,1778675328.0,73.0,1.917969,0.128906,-10.03125,,,,,,,,,,
acc,1778675328.0,73.0,1.957031,-0.027344,-9.839844,,,,,,,,,,
acc,1778675328.0,73.0,1.992188,-0.179688,-9.796875,,,,,,,,,,
acc,1778675328.0,73.0,2.03125,-0.484375,-9.652344,,,,,,,,,,
acc,1778675328.0,73.0,2.03125,0.011719,-9.457031,,,,,,,,,,
acc,1778675328.0,73.0,2.070312,0.320312,-9.375,,,,,,,,,,
acc,1778675328.0,73.0,2.070312,0.742188,-9.496094,,,,,,,,,,
acc,1778675328.0,73.0,2.03125,0.816406,-9.226562,,,,,,,,,,
acc,1778675328.0,73.0,2.03125,0.28125,-9.53125,,,,,,,,,,
acc,1778675328.0,73.0,2.183594,0.203125,-9.453125,,,,,,,,,,
acc,1778675328.0,73.0,2.261719,0.128906,-9.53125,,,,,,,,,,
acc,1778675328.0,73.0,2.148438,0.050781,-9.53125,,,,,,,,,,
acc,1778675328.0,73.0,1.992188,0.242188,-9.730469,,,,,,,,,,
acc,1778675328.0,73.0,1.878906,0.472656,-9.875,,,,,,,,,,
acc,1778675328.0,73.0,1.878906,0.703125,-9.457031,,,,,,,,,,
acc,1778675328.0,73.0,1.992188,0.703125,-9.648438,,,,,,,,,,
acc,1778675328.0,73.0,1.917969,0.703125,-9.496094,,,,,,,,,,
acc,1778675328.0,73.0,1.917969,0.355469,-9.609375,,,,,,,,,,
acc,1778675328.0,73.0,1.992188,0.28125,-9.648438,,,,,,,,,,
acc,1778675328.0,73.0,1.917969,-0.027344,-9.6875,,,,,,,,,,
acc,1778675328.0,73.0,1.992188,-0.101562,-9.757812,,,,,,,,,,
acc,1778675328.0,73.0,1.992188,0.011719,-9.839844,,,,,,,,,,
acc,1778675328.0,73.0,1.957031,-0.371094,-9.761719,,,,,,,,,,
acc,1778675328.0,73.0,2.070312,-0.332031,-9.796875,,,,,,,,,,
acc,1778675328.0,73.0,2.109375,0.050781,-9.347656,,,,,,,,,,
acc,1778675328.0,73.0,2.183594,0.472656,-9.570312,,,,,,,,,,
acc,1778675328.0,73.0,2.222656,0.203125,-9.613281,,,,,,,,,,
acc,1778675328.0,73.0,2.109375,0.089844,-9.652344,,,,,,,,,,
acc,1778675328.0,73.0,1.957031,0.164062,-9.917969,,,,,,,,,,
acc,1778675328.0,73.0,1.992188,0.320312,-10.113281,,,,,,,,,,
acc,1778675328.0,73.0,1.957031,0.203125,-9.917969,,,,,,,,,,
acc,1778675328.0,73.0,2.109375,0.320312,-10.035156,,,,,,,,,,
acc,1778675328.0,73.0,2.070312,1.007812,-9.796875,,,,,,,,,,
acc,1778675328.0,73.0,2.109375,1.046875,-9.726562,,,,,,,,,,
acc,1778675328.0,73.0,2.148438,1.085938,-9.757812,,,,,,,,,,
acc,1778675328.0,73.0,2.070312,0.703125,-9.878906,,,,,,,,,,
acc,1778675328.0,73.0,2.148438,0.28125,-9.757812,,,,,,,,,,
acc,1778675328.0,73.0,2.148438,0.128906,-9.839844,,,,,,,,,,
acc,1778675328.0,73.0,2.261719,0.128906,-9.992188,,,,,,,,,,
acc,1778675328.0,73.0,2.261719,0.28125,-9.652344,,,,,,,,,,
acc,1778675328.0,73.0,2.183594,0.320312,-9.878906,,,,,,,,,,
acc,1778675328.0,73.0,1.992188,0.203125,-9.835938,,,,,,,,,,
acc,1778675328.0,73.0,1.917969,0.550781,-10.070312,,,,,,,,,,
acc,1778675328.0,73.0,1.839844,0.703125,-9.878906,,,,,,,,,,
acc,1778675328.0,73.0,1.917969,0.855469,-10.257812,,,,,,,,,,
acc,1778675328.0,73.0,1.839844,0.128906,-10.109375,,,,,,,,,,
acc,1778675328.0,73.0,1.800781,0.355469,-10.261719,,,,,,,,,,
acc,1778675328.0,73.0,1.609375,0.320312,-10.070312,,,,,,,,,,
acc,1778675328.0,73.0,1.648438,0.320312,-10.261719,,,,,,,,,,
acc,1778675328.0,73.0,1.765625,0.511719,-9.839844,,,,,,,,,,
acc,1778675328.0,73.0,1.839844,0.472656,-10.257812,,,,,,,,,,
acc,1778675328.0,73.0,1.609375,0.777344,-10.03125,,,,,,,,,,
acc,1778675328.0,73.0,1.496094,1.316406,-10.183594,,,,,,,,,,
acc,1778675328.0,73.0,1.570312,1.046875,-10.03125,,,,,,,,,,
acc,1778675328.0,73.0,1.6875,0.550781,-9.917969,,,,,,,,,,
acc,1778675328.0,73.0,1.6875,0.164062,-10.113281,,,,,,,,,,
acc,1778675328.0,73.0,1.535156,0.164062,-10.152344,,,,,,,,,,
acc,1778675328.0,73.0,1.304688,0.433594,-10.074219,,,,,,,,,,
acc,1778675328.0,73.0,1.1875,0.816406,-10.335938,,,,,,,,,,
acc,1778675328.0,73.0,1.304688,1.046875,-10.378906,,,,,,,,,,
acc,1778675328.0,73.0,1.304688,0.664062,-9.953125,,,,,,,,,,
acc,1778675328.0,73.0,1.304688,0.742188,-10.21875,,,,,,,,,,
acc,1778675328.0,73.0,1.304688,0.664062,-9.953125,,,,,,,,,,
acc,1778675329.0,74.0,1.378906,0.011719,-10.03125,,,,,,,,,,
acc,1778675329.0,74.0,1.34375,0.011719,-10.074219,,,,,,,,,,
acc,1778675329.0,74.0,1.457031,-0.027344,-10.113281,,,,,,,,,,
acc,1778675329.0,74.0,1.378906,0.320312,-9.800781,,,,,,,,,,
acc,1778675329.0,74.0,1.378906,0.777344,-9.957031,,,,,,,,,,
acc,1778675329.0,74.0,1.378906,0.550781,-9.917969,,,,,,,,,,
acc,1778675329.0,74.0,1.457031,0.320312,-9.648438,,,,,,,,,,
acc,1778675329.0,74.0,1.417969,0.550781,-9.6875,,,,,,,,,,
acc,1778675329.0,74.0,1.304688,0.703125,-9.730469,,,,,,,,,,
acc,1778675329.0,74.0,1.152344,0.664062,-9.839844,,,,,,,,,,
acc,1778675329.0,74.0,1.074219,0.703125,-9.875,,,,,,,,,,
acc,1778675329.0,74.0,1.074219,0.777344,-9.800781,,,,,,,,,,
acc,1778675329.0,74.0,1.226562,0.355469,-9.800781,,,,,,,,,,
acc,1778675329.0,74.0,1.34375,-0.140625,-9.609375,,,,,,,,,,
acc,1778675329.0,74.0,1.34375,0.011719,-9.53125,,,,,,,,,,
acc,1778675329.0,74.0,1.378906,0.320312,-9.691406,,,,,,,,,,
acc,1778675329.0,74.0,1.378906,0.472656,-9.53125,,,,,,,,,,
acc,1778675329.0,74.0,1.417969,0.625,-9.613281,,,,,,,,,,
acc,1778675329.0,74.0,1.457031,0.355469,-9.375,,,,,,,,,,
acc,1778675329.0,74.0,1.34375,0.320312,-9.53125,,,,,,,,,,
acc,1778675329.0,74.0,1.378906,0.242188,-9.570312,,,,,,,,,,
acc,1778675329.0,74.0,1.378906,0.164062,-9.226562,,,,,,,,,,
acc,1778675329.0,74.0,1.304688,0.28125,-9.414062,,,,,,,,,,
acc,1778675329.0,74.0,1.417969,0.585938,-9.269531,,,,,,,,,,
acc,1778675329.0,74.0,1.378906,0.433594,-9.308594,,,,,,,,,,
acc,1778675329.0,74.0,1.304688,0.28125,-9.265625,,,,,,,,,,
acc,1778675329.0,74.0,1.1875,0.511719,-9.453125,,,,,,,,,,
acc,1778675329.0,74.0,1.226562,0.472656,-9.414062,,,,,,,,,,
acc,1778675329.0,74.0,1.34375,0.585938,-9.269531,,,,,,,,,,
acc,1778675329.0,74.0,1.457031,0.355469,-9.230469,,,,,,,,,,
acc,1778675329.0,74.0,1.609375,0.203125,-9.074219,,,,,,,,,,
acc,1778675329.0,74.0,1.535156,0.164062,-9.113281,,,,,,,,,,
acc,1778675329.0,74.0,1.535156,-0.179688,-9.109375,,,,,,,,,,
acc,1778675329.0,74.0,1.570312,-0.179688,-9.074219,,,,,,,,,,
acc,1778675329.0,74.0,1.535156,0.089844,-9.074219,,,,,,,,,,
acc,1778675329.0,74.0,1.457031,0.511719,-9.074219,,,,,,,,,,
acc,1778675329.0,74.0,1.34375,0.355469,-9.265625,,,,,,,,,,
acc,1778675329.0,74.0,1.304688,0.550781,-9.304688,,,,,,,,,,
acc,1778675329.0,74.0,1.417969,0.585938,-9.1875,,,,,,,,,,
acc,1778675329.0,74.0,1.535156,0.394531,-9.070312,,,,,,,,,,
acc,1778675329.0,74.0,1.609375,0.28125,-9.074219,,,,,,,,,,
acc,1778675329.0,74.0,1.609375,0.355469,-8.996094,,,,,,,,,,
acc,1778675329.0,74.0,1.496094,0.472656,-9.074219,,,,,,,,,,
acc,1778675329.0,74.0,1.378906,0.550781,-9.1875,,,,,,,,,,
acc,1778675329.0,74.0,1.34375,0.355469,-9.230469,,,,,,,,,,
acc,1778675329.0,74.0,1.457031,0.242188,-9.070312,,,,,,,,,,
acc,1778675329.0,74.0,1.535156,0.28125,-9.113281,,,,,,,,,,
acc,1778675329.0,74.0,1.417969,0.203125,-9.070312,,,,,,,,,,
acc,1778675329.0,74.0,1.535156,0.011719,-9.304688,,,,,,,,,,
acc,1778675329.0,74.0,1.570312,0.28125,-9.308594,,,,,,,,,,
acc,1778675329.0,74.0,1.496094,0.128906,-9.375,,,,,,,,,,
acc,1778675329.0,74.0,1.535156,0.128906,-9.453125,,,,,,,,,,
acc,1778675329.0,74.0,1.457031,0.28125,-9.378906,,,,,,,,,,
acc,1778675329.0,74.0,1.34375,0.433594,-9.570312,,,,,,,,,,
acc,1778675329.0,74.0,1.457031,0.511719,-9.453125,,,,,,,,,,
acc,1778675329.0,74.0,1.535156,0.664062,-9.308594,,,,,,,,,,
acc,1778675329.0,74.0,1.496094,0.664062,-9.496094,,,,,,,,,,
acc,1778675329.0,74.0,1.496094,0.355469,-9.453125,,,,,,,,,,
acc,1778675329.0,74.0,1.378906,0.164062,-9.496094,,,,,,,,,,
acc,1778675329.0,74.0,1.1875,0.203125,-9.839844,,,,,,,,,,
acc,1778675329.0,74.0,1.1875,0.011719,-9.800781,,,,,,,,,,
acc,1778675329.0,74.0,1.265625,0.011719,-9.652344,,,,,,,,,,
acc,1778675329.0,74.0,1.34375,0.203125,-9.726562,,,,,,,,,,
acc,1778675329.0,74.0,1.34375,0.394531,-9.796875,,,,,,,,,,
acc,1778675329.0,74.0,1.378906,0.433594,-9.613281,,,,,,,,,,
acc,1778675329.0,74.0,1.457031,0.28125,-9.6875,,,,,,,,,,
acc,1778675329.0,74.0,1.457031,0.164062,-9.652344,,,,,,,,,,
acc,1778675329.0,74.0,1.417969,0.394531,-9.839844,,,,,,,,,,
acc,1778675329.0,74.0,1.1875,0.242188,-9.878906,,,,,,,,,,
acc,1778675329.0,74.0,1.1875,0.28125,-10.070312,,,,,,,,,,
acc,1778675329.0,74.0,1.113281,0.394531,-10.113281,,,,,,,,,,
acc,1778675329.0,74.0,1.152344,0.355469,-9.914062,,,,,,,,,,
acc,1778675329.0,74.0,1.378906,0.164062,-10.035156,,,,,,,,,,
acc,1778675329.0,74.0,1.304688,0.128906,-9.996094,,,,,,,,,,
acc,1778675329.0,74.0,1.152344,0.550781,-9.957031,,,,,,,,,,
acc,1778675329.0,74.0,1.035156,0.855469,-10.183594,,,,,,,,,,
acc,1778675329.0,74.0,1.035156,0.933594,-10.417969,,,,,,,,,,
acc,1778675329.0,74.0,0.960938,0.855469,-10.335938,,,,,,,,,,
acc,1778675329.0,74.0,1.074219,0.550781,-10.375,,,,,,,,,,
acc,1778675329.0,74.0,1.113281,0.472656,-10.109375,,,,,,,,,,
acc,1778675329.0,74.0,1.226562,0.203125,-10.152344,,,,,,,,,,
acc,1778675329.0,74.0,1.265625,-0.027344,-10.148438,,,,,,,,,,
acc,1778675329.0,74.0,1.304688,0.089844,-10.179688,,,,,,,,,,
acc,1778675329.0,74.0,1.152344,0.433594,-10.179688,,,,,,,,,,
acc,1778675329.0,74.0,1.035156,0.664062,-10.378906,,,,,,,,,,
acc,1778675329.0,74.0,0.960938,0.355469,-10.601562,,,,,,,,,,
acc,1778675329.0,74.0,0.882812,0.472656,-10.375,,,,,,,,,,
acc,1778675329.0,74.0,0.882812,0.703125,-10.378906,,,,,,,,,,
acc,1778675329.0,74.0,1.152344,0.777344,-10.417969,,,,,,,,,,
acc,1778675329.0,74.0,1.113281,0.664062,-10.152344,,,,,,,,,,
acc,1778675329.0,74.0,0.960938,0.511719,-10.414062,,,,,,,,,,
acc,1778675329.0,74.0,0.804688,0.550781,-10.300781,,,,,,,,,,
acc,1778675329.0,74.0,0.652344,0.394531,-10.457031,,,,,,,,,,
acc,1778675329.0,74.0,0.652344,0.164062,-10.496094,,,,,,,,,,
acc,1778675329.0,74.0,0.691406,-0.0625,-10.335938,,,,,,,,,,
acc,1778675329.0,74.0,0.613281,0.089844,-10.375,,,,,,,,,,
acc,1778675329.0,74.0,0.574219,0.320312,-10.296875,,,,,,,,,,
acc,1778675329.0,74.0,0.613281,0.355469,-10.375,,,,,,,,,,
acc,1778675329.0,74.0,0.574219,0.433594,-10.375,,,,,,,,,,
acc,1778675329.0,74.0,0.613281,0.320312,-10.375,,,,,,,,,,
acc,1778675329.0,74.0,0.574219,0.433594,-10.21875,,,,,,,,,,
acc,1778675329.0,74.0,0.5,0.433594,-10.261719,,,,,,,,,,
acc,1778675329.0,74.0,0.460938,0.355469,-10.492188,,,,,,,,,,
acc,1778675329.0,74.0,0.382812,0.242188,-10.222656,,,,,,,,,,
acc,1778675329.0,74.0,0.347656,0.011719,-10.222656,,,,,,,,,,
acc,1778675329.0,74.0,0.382812,0.203125,-10.296875,,,,,,,,,,
acc,1778675329.0,74.0,0.382812,0.320312,-10.148438,,,,,,,,,,
acc,1778675329.0,74.0,0.421875,0.433594,-10.148438,,,,,,,,,,
acc,1778675329.0,74.0,0.308594,0.855469,-10.257812,,,,,,,,,,
acc,1778675329.0,74.0,0.269531,1.007812,-10.378906,,,,,,,,,,
acc,1778675329.0,74.0,0.269531,0.703125,-10.113281,,,,,,,,,,
acc,1778675329.0,74.0,0.347656,0.585938,-10.148438,,,,,,,,,,
acc,1778675329.0,74.0,0.308594,0.550781,-10.222656,,,,,,,,,,
acc,1778675329.0,74.0,0.269531,0.203125,-9.6875,,,,,,,,,,
acc,1778675329.0,74.0,0.308594,0.128906,-9.730469,,,,,,,,,,
acc,1778675329.0,74.0,0.269531,0.050781,-9.878906,,,,,,,,,,
acc,1778675329.0,74.0,0.308594,0.050781,-9.761719,,,,,,,,,,
acc,1778675329.0,74.0,0.269531,0.550781,-9.878906,,,,,,,,,,
acc,1778675329.0,74.0,0.230469,0.394531,-9.757812,,,,,,,,,,
acc,1778675329.0,74.0,0.308594,0.355469,-9.953125,,,,,,,,,,
acc,1778675329.0,74.0,0.269531,0.472656,-9.691406,,,,,,,,,,
acc,1778675329.0,74.0,0.308594,0.394531,-9.652344,,,,,,,,,,
acc,1778675329.0,74.0,0.347656,0.625,-9.691406,,,,,,,,,,
acc,1778675329.0,74.0,0.308594,0.550781,-9.6875,,,,,,,,,,
acc,1778675329.0,74.0,0.269531,0.511719,-9.609375,,,,,,,,,,
acc,1778675329.0,74.0,0.269531,0.664062,-9.726562,,,,,,,,,,
acc,1778675329.0,74.0,0.230469,0.664062,-9.730469,,,,,,,,,,
acc,1778675329.0,74.0,0.15625,0.511719,-9.730469,,,,,,,,,,
acc,1778675330.0,75.0,0.269531,0.433594,-9.570312,,,,,,,,,,
acc,1778675330.0,75.0,0.269531,0.320312,-9.648438,,,,,,,,,,
acc,1778675330.0,75.0,0.382812,0.242188,-9.457031,,,,,,,,,,
acc,1778675330.0,75.0,0.421875,0.550781,-9.609375,,,,,,,,,,
acc,1778675330.0,75.0,0.421875,0.664062,-9.574219,,,,,,,,,,
acc,1778675330.0,75.0,0.460938,0.585938,-9.535156,,,,,,,,,,
acc,1778675330.0,75.0,0.421875,0.777344,-9.414062,,,,,,,,,,
acc,1778675330.0,75.0,0.421875,0.625,-9.453125,,,,,,,,,,
acc,1778675330.0,75.0,0.382812,0.585938,-9.417969,,,,,,,,,,
acc,1778675330.0,75.0,0.382812,0.511719,-9.375,,,,,,,,,,
acc,1778675330.0,75.0,0.421875,0.433594,-9.453125,,,,,,,,,,
acc,1778675330.0,75.0,0.382812,0.355469,-9.414062,,,,,,,,,,
acc,1778675330.0,75.0,0.382812,0.320312,-9.648438,,,,,,,,,,
acc,1778675330.0,75.0,0.347656,0.511719,-9.417969,,,,,,,,,,
acc,1778675330.0,75.0,0.191406,0.742188,-9.757812,,,,,,,,,,
acc,1778675330.0,75.0,0.308594,0.777344,-9.613281,,,,,,,,,,
acc,1778675330.0,75.0,0.347656,0.933594,-9.730469,,,,,,,,,,
acc,1778675330.0,75.0,0.347656,0.894531,-9.574219,,,,,,,,,,
acc,1778675330.0,75.0,0.347656,0.585938,-9.609375,,,,,,,,,,
acc,1778675330.0,75.0,0.382812,0.28125,-9.839844,,,,,,,,,,
acc,1778675330.0,75.0,0.308594,0.011719,-9.53125,,,,,,,,,,
acc,1778675330.0,75.0,0.382812,-0.332031,-9.613281,,,,,,,,,,
acc,1778675330.0,75.0,0.460938,0.050781,-9.570312,,,,,,,,,,
acc,1778675330.0,75.0,0.347656,0.28125,-9.757812,,,,,,,,,,
acc,1778675330.0,75.0,0.230469,0.511719,-9.6875,,,,,,,,,,
acc,1778675330.0,75.0,0.230469,0.664062,-9.800781,,,,,,,,,,
acc,1778675330.0,75.0,0.191406,0.742188,-9.800781,,,,,,,,,,
acc,1778675330.0,75.0,0.117188,0.664062,-9.726562,,,,,,,,,,
acc,1778675330.0,75.0,0.0,0.585938,-9.796875,,,,,,,,,,
acc,1778675330.0,75.0,0.0,0.472656,-9.730469,,,,,,,,,,
acc,1778675330.0,75.0,0.039062,0.511719,-9.609375,,,,,,,,,,
acc,1778675330.0,75.0,0.0,0.355469,-9.875,,,,,,,,,,
acc,1778675330.0,75.0,0.0,0.203125,-9.957031,,,,,,,,,,
acc,1778675330.0,75.0,-0.035156,0.394531,-9.761719,,,,,,,,,,
acc,1778675330.0,75.0,-0.035156,0.550781,-9.796875,,,,,,,,,,
acc,1778675330.0,75.0,0.039062,0.585938,-9.878906,,,,,,,,,,
acc,1778675330.0,75.0,0.039062,0.550781,-9.6875,,,,,,,,,,
acc,1778675330.0,75.0,0.039062,0.625,-9.996094,,,,,,,,,,
acc,1778675330.0,75.0,-0.035156,0.355469,-9.875,,,,,,,,,,
acc,1778675330.0,75.0,-0.035156,0.128906,-9.875,,,,,,,,,,
acc,1778675330.0,75.0,0.0,0.242188,-9.839844,,,,,,,,,,
acc,1778675330.0,75.0,0.117188,0.203125,-9.878906,,,,,,,,,,
acc,1778675330.0,75.0,0.269531,0.28125,-9.761719,,,,,,,,,,
acc,1778675330.0,75.0,0.078125,0.394531,-9.796875,,,,,,,,,,
acc,1778675330.0,75.0,0.0,0.472656,-9.835938,,,,,,,,,,
acc,1778675330.0,75.0,-0.035156,0.511719,-9.835938,,,,,,,,,,
acc,1778675330.0,75.0,-0.035156,0.550781,-9.957031,,,,,,,,,,
acc,1778675330.0,75.0,-0.074219,0.550781,-10.03125,,,,,,,,,,
acc,1778675330.0,75.0,-0.035156,0.703125,-9.796875,,,,,,,,,,
acc,1778675330.0,75.0,-0.035156,0.703125,-9.761719,,,,,,,,,,
acc,1778675330.0,75.0,0.078125,0.472656,-9.691406,,,,,,,,,,
acc,1778675330.0,75.0,0.0,0.472656,-9.730469,,,,,,,,,,
acc,1778675330.0,75.0,0.078125,0.472656,-9.800781,,,,,,,,,,
acc,1778675330.0,75.0,0.0,0.089844,-9.730469,,,,,,,,,,
acc,1778675330.0,75.0,0.0,0.050781,-9.761719,,,,,,,,,,
acc,1778675330.0,75.0,0.117188,0.011719,-9.691406,,,,,,,,,,
acc,1778675330.0,75.0,0.269531,0.089844,-9.648438,,,,,,,,,,
acc,1778675330.0,75.0,0.230469,0.128906,-9.535156,,,,,,,,,,
acc,1778675330.0,75.0,0.269531,0.128906,-9.492188,,,,,,,,,,
acc,1778675330.0,75.0,0.191406,0.164062,-9.53125,,,,,,,,,,
acc,1778675330.0,75.0,0.191406,0.355469,-9.726562,,,,,,,,,,
acc,1778675330.0,75.0,0.078125,0.394531,-9.570312,,,,,,,,,,
acc,1778675330.0,75.0,0.0,0.355469,-9.953125,,,,,,,,,,
acc,1778675330.0,75.0,-0.035156,0.355469,-10.03125,,,,,,,,,,
acc,1778675330.0,75.0,0.0,0.164062,-9.839844,,,,,,,,,,
acc,1778675330.0,75.0,0.039062,0.050781,-9.957031,,,,,,,,,,
acc,1778675330.0,75.0,0.039062,0.203125,-9.726562,,,,,,,,,,
acc,1778675330.0,75.0,0.117188,0.472656,-9.609375,,,,,,,,,,
acc,1778675330.0,75.0,0.117188,0.703125,-9.496094,,,,,,,,,,
acc,1778675330.0,75.0,0.230469,0.742188,-9.648438,,,,,,,,,,
acc,1778675330.0,75.0,0.15625,0.472656,-9.574219,,,,,,,,,,
acc,1778675330.0,75.0,0.15625,0.511719,-9.757812,,,,,,,,,,
acc,1778675330.0,75.0,0.078125,0.355469,-9.609375,,,,,,,,,,
acc,1778675330.0,75.0,0.078125,0.089844,-9.730469,,,,,,,,,,
acc,1778675330.0,75.0,0.191406,-0.101562,-9.648438,,,,,,,,,,
acc,1778675330.0,75.0,0.269531,-0.101562,-9.378906,,,,,,,,,,
acc,1778675330.0,75.0,0.15625,-0.140625,-9.609375,,,,,,,,,,
acc,1778675330.0,75.0,0.230469,-0.140625,-9.761719,,,,,,,,,,
acc,1778675330.0,75.0,0.117188,-0.0625,-9.613281,,,,,,,,,,
acc,1778675330.0,75.0,-0.074219,0.203125,-9.914062,,,,,,,,,,
acc,1778675330.0,75.0,-0.113281,0.203125,-9.917969,,,,,,,,,,
acc,1778675330.0,75.0,-0.074219,0.203125,-9.953125,,,,,,,,,,
acc,1778675330.0,75.0,-0.035156,0.203125,-9.917969,,,,,,,,,,
acc,1778675330.0,75.0,-0.035156,0.242188,-9.6875,,,,,,,,,,
acc,1778675330.0,75.0,-0.074219,0.128906,-9.6875,,,,,,,,,,
acc,1778675330.0,75.0,-0.035156,0.089844,-9.800781,,,,,,,,,,
acc,1778675330.0,75.0,-0.113281,-0.0625,-9.613281,,,,,,,,,,
acc,1778675330.0,75.0,-0.152344,0.164062,-9.957031,,,,,,,,,,
acc,1778675330.0,75.0,-0.191406,0.433594,-9.691406,,,,,,,,,,
acc,1778675330.0,75.0,-0.074219,0.433594,-9.953125,,,,,,,,,,
acc,1778675330.0,75.0,-0.191406,0.472656,-9.652344,,,,,,,,,,
acc,1778675330.0,75.0,-0.074219,0.585938,-9.835938,,,,,,,,,,
acc,1778675330.0,75.0,-0.113281,0.433594,-9.6875,,,,,,,,,,
acc,1778675330.0,75.0,-0.191406,0.511719,-9.726562,,,,,,,,,,
acc,1778675330.0,75.0,-0.226562,0.164062,-9.839844,,,,,,,,,,
acc,1778675330.0,75.0,-0.191406,-0.0625,-9.914062,,,,,,,,,,
acc,1778675330.0,75.0,-0.34375,0.164062,-9.957031,,,,,,,,,,
acc,1778675330.0,75.0,-0.417969,-0.0625,-9.796875,,,,,,,,,,
acc,1778675330.0,75.0,-0.417969,0.089844,-9.953125,,,,,,,,,,
acc,1778675330.0,75.0,-0.34375,0.089844,-9.953125,,,,,,,,,,
acc,1778675330.0,75.0,-0.34375,0.128906,-9.757812,,,,,,,,,,
acc,1778675330.0,75.0,-0.265625,0.355469,-9.996094,,,,,,,,,,
acc,1778675330.0,75.0,-0.265625,0.242188,-9.875,,,,,,,,,,
acc,1778675330.0,75.0,-0.226562,0.511719,-9.691406,,,,,,,,,,
acc,1778675330.0,75.0,-0.226562,0.242188,-9.996094,,,,,,,,,,
acc,1778675330.0,75.0,-0.226562,0.394531,-9.726562,,,,,,,,,,
acc,1778675330.0,75.0,-0.382812,0.28125,-9.957031,,,,,,,,,,
acc,1778675330.0,75.0,-0.382812,0.320312,-9.648438,,,,,,,,,,
acc,1778675330.0,75.0,-0.34375,0.203125,-9.570312,,,,,,,,,,
acc,1778675330.0,75.0,-0.34375,0.164062,-9.796875,,,,,,,,,,
acc,1778675330.0,75.0,-0.457031,0.394531,-9.570312,,,,,,,,,,
acc,1778675330.0,75.0,-0.613281,0.394531,-9.878906,,,,,,,,,,
acc,1778675330.0,75.0,-0.613281,0.550781,-10.070312,,,,,,,,,,
acc,1778675330.0,75.0,-0.535156,0.625,-9.996094,,,,,,,,,,
acc,1778675330.0,75.0,-0.535156,0.242188,-9.839844,,,,,,,,,,
acc,1778675330.0,75.0,-0.457031,0.203125,-9.878906,,,,,,,,,,
acc,1778675330.0,75.0,-0.457031,-0.027344,-9.726562,,,,,,,,,,
acc,1778675330.0,75.0,-0.417969,0.089844,-9.730469,,,,,,,,,,
acc,1778675330.0,75.0,-0.34375,0.128906,-9.730469,,,,,,,,,,
acc,1778675330.0,75.0,-0.382812,-0.0625,-9.726562,,,,,,,,,,
acc,1778675330.0,75.0,-0.535156,0.128906,-9.914062,,,,,,,,,,
acc,1778675330.0,75.0,-0.535156,0.28125,-9.957031,,,,,,,,,,
acc,1778675330.0,75.0,-0.574219,0.585938,-9.730469,,,,,,,,,,
acc,1778675330.0,75.0,-0.574219,0.703125,-9.953125,,,,,,,,,,
acc,1778675330.0,75.0,-0.535156,0.933594,-9.796875,,,,,,,,,,
acc,1778675330.0,75.0,-0.613281,0.742188,-9.796875,,,,,,,,,,
acc,1778675331.0,76.0,-0.574219,0.703125,-9.992188,,,,,,,,,,
acc,1778675331.0,76.0,-0.648438,0.625,-9.875,,,,,,,,,,
acc,1778675331.0,76.0,-0.648438,0.433594,-9.875,,,,,,,,,,
acc,1778675331.0,76.0,-0.574219,0.585938,-9.992188,,,,,,,,,,
acc,1778675331.0,76.0,-0.457031,0.472656,-9.691406,,,,,,,,,,
acc,1778675331.0,76.0,-0.457031,0.550781,-9.796875,,,,,,,,,,
acc,1778675331.0,76.0,-0.535156,0.816406,-9.800781,,,,,,,,,,
acc,1778675331.0,76.0,-0.457031,0.511719,-9.953125,,,,,,,,,,
acc,1778675331.0,76.0,-0.574219,0.242188,-9.757812,,,,,,,,,,
acc,1778675331.0,76.0,-0.535156,-0.253906,-9.957031,,,,,,,,,,
acc,1778675331.0,76.0,-0.382812,-0.332031,-9.878906,,,,,,,,,,
acc,1778675331.0,76.0,-0.457031,-0.371094,-9.761719,,,,,,,,,,
acc,1778675331.0,76.0,-0.457031,-0.027344,-9.839844,,,,,,,,,,
acc,1778675331.0,76.0,-0.417969,0.050781,-9.839844,,,,,,,,,,
acc,1778675331.0,76.0,-0.34375,0.320312,-9.691406,,,,,,,,,,
acc,1778675331.0,76.0,-0.496094,0.585938,-9.839844,,,,,,,,,,
acc,1778675331.0,76.0,-0.496094,0.585938,-9.761719,,,,,,,,,,
acc,1778675331.0,76.0,-0.496094,0.625,-9.726562,,,,,,,,,,
acc,1778675331.0,76.0,-0.574219,0.777344,-9.992188,,,,,,,,,,
acc,1778675331.0,76.0,-0.496094,0.933594,-9.917969,,,,,,,,,,
acc,1778675331.0,76.0,-0.496094,0.816406,-9.953125,,,,,,,,,,
acc,1778675331.0,76.0,-0.574219,0.816406,-9.996094,,,,,,,,,,
acc,1778675331.0,76.0,-0.535156,0.855469,-9.875,,,,,,,,,,
acc,1778675331.0,76.0,-0.457031,0.816406,-9.835938,,,,,,,,,,
acc,1778675331.0,76.0,-0.382812,0.894531,-10.070312,,,,,,,,,,
acc,1778675331.0,76.0,-0.457031,0.625,-9.878906,,,,,,,,,,
acc,1778675331.0,76.0,-0.34375,0.933594,-10.113281,,,,,,,,,,
acc,1778675331.0,76.0,-0.535156,0.742188,-10.152344,,,,,,,,,,
acc,1778675331.0,76.0,-0.382812,0.511719,-10.074219,,,,,,,,,,
acc,1778675331.0,76.0,-0.226562,-0.027344,-9.996094,,,,,,,,,,
acc,1778675331.0,76.0,-0.265625,-0.5625,-9.835938,,,,,,,,,,
acc,1778675331.0,76.0,-0.304688,-0.445312,-9.992188,,,,,,,,,,
acc,1778675331.0,76.0,-0.382812,-0.140625,-9.757812,,,,,,,,,,
acc,1778675331.0,76.0,-0.648438,0.203125,-9.914062,,,,,,,,,,
acc,1778675331.0,76.0,-0.6875,0.703125,-10.152344,,,,,,,,,,
acc,1778675331.0,76.0,-0.804688,0.894531,-10.074219,,,,,,,,,,
acc,1778675331.0,76.0,-0.765625,0.550781,-10.183594,,,,,,,,,,
acc,1778675331.0,76.0,-0.6875,0.433594,-10.113281,,,,,,,,,,
acc,1778675331.0,76.0,-0.574219,0.320312,-10.113281,,,,,,,,,,
acc,1778675331.0,76.0,-0.648438,0.394531,-9.953125,,,,,,,,,,
acc,1778675331.0,76.0,-0.613281,0.242188,-10.035156,,,,,,,,,,
acc,1778675331.0,76.0,-0.648438,0.28125,-10.03125,,,,,,,,,,
acc,1778675331.0,76.0,-0.765625,0.320312,-10.035156,,,,,,,,,,
acc,1778675331.0,76.0,-0.726562,0.511719,-10.183594,,,,,,,,,,
acc,1778675331.0,76.0,-0.726562,0.585938,-10.152344,,,,,,,,,,
acc,1778675331.0,76.0,-0.6875,0.511719,-10.21875,,,,,,,,,,
acc,1778675331.0,76.0,-0.648438,0.511719,-10.035156,,,,,,,,,,
acc,1778675331.0,76.0,-0.535156,0.472656,-10.183594,,,,,,,,,,
acc,1778675331.0,76.0,-0.457031,-0.101562,-10.035156,,,,,,,,,,
acc,1778675331.0,76.0,-0.535156,0.128906,-10.257812,,,,,,,,,,
acc,1778675331.0,76.0,-0.648438,0.050781,-10.183594,,,,,,,,,,
acc,1778675331.0,76.0,-0.648438,0.203125,-10.375,,,,,,,,,,
acc,1778675331.0,76.0,-0.648438,0.394531,-10.257812,,,,,,,,,,
acc,1778675331.0,76.0,-0.496094,0.394531,-10.035156,,,,,,,,,,
acc,1778675331.0,76.0,-0.417969,0.703125,-9.878906,,,,,,,,,,
acc,1778675331.0,76.0,-0.417969,0.550781,-9.839844,,,,,,,,,,
acc,1778675331.0,76.0,-0.457031,0.164062,-9.917969,,,,,,,,,,
acc,1778675331.0,76.0,-0.417969,0.164062,-9.878906,,,,,,,,,,
acc,1778675331.0,76.0,-0.535156,0.128906,-10.109375,,,,,,,,,,
acc,1778675331.0,76.0,-0.574219,0.242188,-9.875,,,,,,,,,,
acc,1778675331.0,76.0,-0.574219,0.355469,-9.917969,,,,,,,,,,
acc,1778675331.0,76.0,-0.574219,0.550781,-9.730469,,,,,,,,,,
acc,1778675331.0,76.0,-0.496094,0.28125,-9.796875,,,,,,,,,,
acc,1778675331.0,76.0,-0.457031,0.164062,-9.6875,,,,,,,,,,
acc,1778675331.0,76.0,-0.535156,0.128906,-9.730469,,,,,,,,,,
acc,1778675331.0,76.0,-0.535156,0.089844,-9.953125,,,,,,,,,,
acc,1778675331.0,76.0,-0.535156,0.203125,-9.652344,,,,,,,,,,
acc,1778675331.0,76.0,-0.6875,0.355469,-10.03125,,,,,,,,,,
acc,1778675331.0,76.0,-0.726562,0.394531,-9.957031,,,,,,,,,,
acc,1778675331.0,76.0,-0.6875,0.550781,-9.996094,,,,,,,,,,
acc,1778675331.0,76.0,-0.6875,0.28125,-9.957031,,,,,,,,,,
acc,1778675331.0,76.0,-0.613281,0.28125,-9.996094,,,,,,,,,,
acc,1778675331.0,76.0,-0.496094,0.203125,-9.761719,,,,,,,,,,
acc,1778675331.0,76.0,-0.535156,0.128906,-9.800781,,,,,,,,,,
acc,1778675331.0,76.0,-0.574219,-0.140625,-9.796875,,,,,,,,,,
acc,1778675331.0,76.0,-0.457031,0.011719,-9.835938,,,,,,,,,,
acc,1778675331.0,76.0,-0.496094,-0.027344,-9.6875,,,,,,,,,,
acc,1778675331.0,76.0,-0.417969,0.089844,-9.800781,,,,,,,,,,
acc,1778675331.0,76.0,-0.34375,0.242188,-9.726562,,,,,,,,,,
acc,1778675331.0,76.0,-0.265625,0.550781,-9.53125,,,,,,,,,,
acc,1778675331.0,76.0,-0.265625,0.742188,-9.574219,,,,,,,,,,
acc,1778675331.0,76.0,-0.34375,0.585938,-9.535156,,,,,,,,,,
acc,1778675331.0,76.0,-0.382812,0.355469,-9.53125,,,,,,,,,,
acc,1778675331.0,76.0,-0.417969,0.433594,-9.652344,,,,,,,,,,
acc,1778675331.0,76.0,-0.382812,0.320312,-9.691406,,,,,,,,,,
acc,1778675331.0,76.0,-0.265625,0.28125,-9.609375,,,,,,,,,,
acc,1778675331.0,76.0,-0.34375,0.394531,-9.726562,,,,,,,,,,
acc,1778675331.0,76.0,-0.226562,0.242188,-9.652344,,,,,,,,,,
acc,1778675331.0,76.0,-0.152344,0.203125,-9.308594,,,,,,,,,,
acc,1778675331.0,76.0,-0.191406,0.433594,-9.53125,,,,,,,,,,
acc,1778675331.0,76.0,-0.113281,0.28125,-9.652344,,,,,,,,,,
acc,1778675331.0,76.0,-0.035156,0.28125,-9.535156,,,,,,,,,,
acc,1778675331.0,76.0,-0.113281,0.011719,-9.53125,,,,,,,,,,
acc,1778675331.0,76.0,-0.035156,-0.101562,-9.613281,,,,,,,,,,
acc,1778675331.0,76.0,-0.035156,-0.140625,-9.453125,,,,,,,,,,
acc,1778675331.0,76.0,0.078125,0.050781,-9.457031,,,,,,,,,,
acc,1778675331.0,76.0,0.039062,0.203125,-9.378906,,,,,,,,,,
acc,1778675331.0,76.0,0.078125,0.28125,-9.613281,,,,,,,,,,
acc,1778675331.0,76.0,-0.074219,0.625,-9.414062,,,,,,,,,,
acc,1778675331.0,76.0,0.039062,0.472656,-9.648438,,,,,,,,,,
acc,1778675331.0,76.0,0.0,0.625,-9.726562,,,,,,,,,,
acc,1778675331.0,76.0,0.15625,0.855469,-9.648438,,,,,,,,,,
acc,1778675331.0,76.0,0.15625,0.664062,-9.496094,,,,,,,,,,
acc,1778675331.0,76.0,0.230469,0.433594,-9.574219,,,,,,,,,,
acc,1778675331.0,76.0,0.230469,0.433594,-9.453125,,,,,,,,,,
acc,1778675331.0,76.0,0.308594,0.472656,-9.492188,,,,,,,,,,
acc,1778675331.0,76.0,0.347656,0.355469,-9.570312,,,,,,,,,,
acc,1778675331.0,76.0,0.230469,0.128906,-9.570312,,,,,,,,,,
acc,1778675331.0,76.0,0.230469,-0.027344,-9.648438,,,,,,,,,,
acc,1778675331.0,76.0,0.347656,0.128906,-9.535156,,,,,,,,,,
acc,1778675331.0,76.0,0.5,0.089844,-9.53125,,,,,,,,,,
acc,1778675331.0,76.0,0.5,0.164062,-9.496094,,,,,,,,,,
acc,1778675331.0,76.0,0.382812,0.203125,-9.535156,,,,,,,,,,
acc,1778675331.0,76.0,0.421875,0.128906,-9.726562,,,,,,,,,,
acc,1778675331.0,76.0,0.769531,0.089844,-9.375,,,,,,,,,,
acc,1778675331.0,76.0,0.921875,0.242188,-9.574219,,,,,,,,,,
acc,1778675331.0,76.0,0.804688,0.433594,-9.757812,,,,,,,,,,
acc,1778675331.0,76.0,0.613281,0.433594,-9.796875,,,,,,,,,,
acc,1778675331.0,76.0,0.652344,0.625,-9.796875,,,,,,,,,,
acc,1778675331.0,76.0,0.769531,0.703125,-9.761719,,,,,,,,,,
acc,1778675331.0,76.0,0.996094,0.164062,-9.34375,,,,,,,,,,
acc,1778675331.0,76.0,1.417969,0.242188,-9.378906,,,,,,,,,,
acc,1778675331.0,76.0,1.378906,0.472656,-10.074219,,,,,,,,,,
acc,1778675331.0,76.0,1.878906,0.28125,-9.957031,,,,,,,,,,
acc,1778675331.0,76.0,3.5625,0.433594,-10.21875,,,,,,,,,,
acc,1778675331.0,76.0,5.785156,0.394531,-9.726562,,,,,,,,,,
acc,1778675331.0,76.0,5.9375,0.242188,-9.796875,,,,,,,,,,
acc,1778675331.0,76.0,4.75,0.242188,-9.796875,,,,,,,,,,
acc,1778675332.0,77.0,4.140625,0.050781,-10.179688,,,,,,,,,,
acc,1778675332.0,77.0,5.632812,0.089844,-10.53125,,,,,,,,,,
acc,1778675332.0,77.0,7.703125,-0.027344,-9.875,,,,,,,,,,
acc,1778675332.0,77.0,8.621094,0.089844,-9.757812,,,,,,,,,,
acc,1778675332.0,77.0,8.238281,0.203125,-9.726562,,,,,,,,,,
acc,1778675332.0,77.0,7.894531,0.550781,-10.453125,,,,,,,,,,
acc,1778675332.0,77.0,8.238281,0.703125,-10.035156,,,,,,,,,,
acc,1778675332.0,77.0,9.425781,0.742188,-10.074219,,,,,,,,,,
acc,1778675332.0,77.0,10.691406,0.777344,-9.761719,,,,,,,,,,
acc,1778675332.0,77.0,11.03125,0.777344,-8.957031,,,,,,,,,,
acc,1778675332.0,77.0,10.847656,1.125,-9.839844,,,,,,,,,,
acc,1778675332.0,77.0,10.875,0.664062,-9.378906,,,,,,,,,,
acc,1778675332.0,77.0,11.613281,0.472656,-9.839844,,,,,,,,,,
acc,1778675332.0,77.0,12.800781,1.160156,-9.726562,,,,,,,,,,
acc,1778675332.0,77.0,11.296875,1.125,-7.65625,,,,,,,,,,
acc,1778675332.0,77.0,10.421875,1.125,-9.113281,,,,,,,,,,
acc,1778675332.0,77.0,11.230469,0.96875,-9.457031,,,,,,,,,,
acc,1778675332.0,77.0,12.066406,1.046875,-11.105469,,,,,,,,,,
acc,1778675332.0,77.0,13.332031,1.160156,-6.96875,,,,,,,,,,
acc,1778675332.0,77.0,12.988281,1.085938,-7.847656,,,,,,,,,,
acc,1778675332.0,77.0,12.183594,0.742188,-9.6875,,,,,,,,,,
acc,1778675332.0,77.0,13.0625,1.277344,-10.339844,,,,,,,,,,
acc,1778675332.0,77.0,12.800781,0.894531,-8.117188,,,,,,,,,,
acc,1778675332.0,77.0,12.867188,1.277344,-8.804688,,,,,,,,,,
acc,1778675332.0,77.0,12.871094,0.703125,-8.882812,,,,,,,,,,
acc,1778675332.0,77.0,12.761719,1.125,-10.453125,,,,,,,,,,
acc,1778675332.0,77.0,13.910156,0.433594,-8.84375,,,,,,,,,,
acc,1778675332.0,77.0,13.714844,0.933594,-8.539062,,,,,,,,,,
acc,1778675332.0,77.0,13.367188,0.089844,-9.761719,,,,,,,,,,
acc,1778675332.0,77.0,13.714844,0.472656,-10.53125,,,,,,,,,,
acc,1778675332.0,77.0,12.835938,0.703125,-9.035156,,,,,,,,,,
acc,1778675332.0,77.0,11.570312,0.242188,-9.992188,,,,,,,,,,
acc,1778675332.0,77.0,11.265625,0.96875,-10.261719,,,,,,,,,,
acc,1778675332.0,77.0,11.230469,0.742188,-9.761719,,,,,,,,,,
acc,1778675332.0,77.0,11.269531,1.316406,-8.15625,,,,,,,,,,
acc,1778675332.0,77.0,10.804688,0.550781,-10.339844,,,,,,,,,,
acc,1778675332.0,77.0,11.953125,1.199219,-7.769531,,,,,,,,,,
acc,1778675332.0,77.0,11.339844,1.046875,-9.839844,,,,,,,,,,
acc,1778675332.0,77.0,10.039062,1.351562,-8.921875,,,,,,,,,,
acc,1778675332.0,77.0,10.230469,2.234375,-8.691406,,,,,,,,,,
acc,1778675332.0,77.0,12.523438,1.699219,-9.878906,,,,,,,,,,
acc,1778675332.0,77.0,11.414062,1.160156,-8.957031,,,,,,,,,,
acc,1778675332.0,77.0,7.816406,0.664062,-11.484375,,,,,,,,,,
acc,1778675332.0,77.0,8.816406,1.125,-8.421875,,,,,,,,,,
acc,1778675332.0,77.0,10.878906,0.742188,-10.03125,,,,,,,,,,
acc,1778675332.0,77.0,9.238281,-0.636719,-6.851562,,,,,,,,,,
acc,1778675332.0,77.0,7.929688,0.742188,-10.070312,,,,,,,,,,
acc,1778675332.0,77.0,9.460938,0.550781,-9.304688,,,,,,,,,,
acc,1778675332.0,77.0,9.082031,0.355469,-8.804688,,,,,,,,,,
acc,1778675332.0,77.0,9.542969,-0.5625,-8.15625,,,,,,,,,,
acc,1778675332.0,77.0,11.269531,-0.179688,-9.1875,,,,,,,,,,
acc,1778675332.0,77.0,10.804688,-0.179688,-9.074219,,,,,,,,,,
acc,1778675332.0,77.0,7.738281,-0.832031,-8.542969,,,,,,,,,,
acc,1778675332.0,77.0,8.46875,0.203125,-9.996094,,,,,,,,,,
acc,1778675332.0,77.0,9.464844,-0.636719,-9.996094,,,,,,,,,,
acc,1778675332.0,77.0,9.277344,-1.097656,-7.542969,,,,,,,,,,
acc,1778675332.0,77.0,9.765625,-0.445312,-8.308594,,,,,,,,,,
acc,1778675332.0,77.0,10.382812,0.203125,-7.769531,,,,,,,,,,
acc,1778675332.0,77.0,11.609375,1.429688,-9.265625,,,,,,,,,,
acc,1778675332.0,77.0,9.617188,-1.058594,-7.351562,,,,,,,,,,
acc,1778675332.0,77.0,4.90625,-0.371094,-6.507812,,,,,,,,,,
acc,1778675332.0,77.0,3.871094,2.539062,-11.261719,,,,,,,,,,
acc,1778675332.0,77.0,13.410156,2.042969,-12.789062,,,,,,,,,,
acc,1778675332.0,77.0,16.824219,-0.179688,-5.128906,,,,,,,,,,
acc,1778675332.0,77.0,10.1875,0.128906,-7.121094,,,,,,,,,,
acc,1778675332.0,77.0,4.367188,1.316406,-11.945312,,,,,,,,,,
acc,1778675332.0,77.0,5.097656,-0.832031,-7.5,,,,,,,,,,
acc,1778675332.0,77.0,7.394531,1.699219,-11.261719,,,,,,,,,,
acc,1778675332.0,77.0,13.0625,1.964844,-8.15625,,,,,,,,,,
acc,1778675332.0,77.0,13.945312,1.773438,-8.347656,,,,,,,,,,
acc,1778675332.0,77.0,5.632812,0.128906,-8.304688,,,,,,,,,,
acc,1778675332.0,77.0,2.757812,-0.601562,-10.5625,,,,,,,,,,
acc,1778675332.0,77.0,8.238281,1.542969,-9.496094,,,,,,,,,,
acc,1778675332.0,77.0,13.183594,1.160156,-7.082031,,,,,,,,,,
acc,1778675332.0,77.0,14.714844,2.042969,-13.25,,,,,,,,,,
acc,1778675332.0,77.0,13.792969,0.394531,-6.738281,,,,,,,,,,
acc,1778675332.0,77.0,8.277344,0.203125,-9.035156,,,,,,,,,,
acc,1778675332.0,77.0,9.882812,0.816406,-8.460938,,,,,,,,,,
acc,1778675332.0,77.0,12.605469,0.625,-11.371094,,,,,,,,,,
acc,1778675332.0,77.0,10.226562,2.082031,-8.730469,,,,,,,,,,
acc,1778675332.0,77.0,10.421875,0.011719,-10.492188,,,,,,,,,,
acc,1778675332.0,77.0,11.378906,-0.675781,-8.5,,,,,,,,,,
acc,1778675332.0,77.0,10.917969,0.742188,-11.183594,,,,,,,,,,
acc,1778675332.0,77.0,11.335938,1.660156,-8.996094,,,,,,,,,,
acc,1778675332.0,77.0,11.265625,1.851562,-9.152344,,,,,,,,,,
acc,1778675332.0,77.0,10.769531,1.390625,-10.339844,,,,,,,,,,
acc,1778675332.0,77.0,11.335938,0.28125,-9.535156,,,,,,,,,,
acc,1778675332.0,77.0,11.652344,0.011719,-8.5,,,,,,,,,,
acc,1778675332.0,77.0,11.152344,0.742188,-9.953125,,,,,,,,,,
acc,1778675332.0,77.0,11.300781,1.429688,-10.03125,,,,,,,,,,
acc,1778675332.0,77.0,12.757812,1.390625,-8.691406,,,,,,,,,,
acc,1778675332.0,77.0,12.871094,0.933594,-9.378906,,,,,,,,,,
acc,1778675332.0,77.0,12.683594,1.277344,-9.761719,,,,,,,,,,
acc,1778675332.0,77.0,10.875,1.507812,-9.496094,,,,,,,,,,
acc,1778675332.0,77.0,10.914062,0.011719,-8.765625,,,,,,,,,,
acc,1778675332.0,77.0,12.105469,0.96875,-9.800781,,,,,,,,,,
acc,1778675332.0,77.0,11.839844,1.773438,-8.269531,,,,,,,,,,
acc,1778675332.0,77.0,11.226562,2.539062,-9.6875,,,,,,,,,,
acc,1778675332.0,77.0,11.996094,2.042969,-9.265625,,,,,,,,,,
acc,1778675332.0,77.0,11.230469,-0.253906,-8.039062,,,,,,,,,,
acc,1778675332.0,77.0,10.730469,-0.0625,-9.917969,,,,,,,,,,
acc,1778675332.0,77.0,10.957031,0.394531,-7.769531,,,,,,,,,,
acc,1778675332.0,77.0,11.070312,2.425781,-8.957031,,,,,,,,,,
acc,1778675332.0,77.0,10.34375,1.929688,-8.382812,,,,,,,,,,
acc,1778675332.0,77.0,10.875,-0.101562,-7.503906,,,,,,,,,,
acc,1778675332.0,77.0,11.152344,1.390625,-9.496094,,,,,,,,,,
acc,1778675332.0,77.0,9.730469,0.203125,-9.570312,,,,,,,,,,
acc,1778675332.0,77.0,9.421875,-0.332031,-9.226562,,,,,,,,,,
acc,1778675332.0,77.0,10.875,1.582031,-8.84375,,,,,,,,,,
acc,1778675332.0,77.0,10.878906,1.160156,-7.65625,,,,,,,,,,
acc,1778675332.0,77.0,9.304688,0.050781,-9.035156,,,,,,,,,,
acc,1778675332.0,77.0,8.699219,-0.601562,-9.53125,,,,,,,,,,
acc,1778675332.0,77.0,10.386719,-0.21875,-8.382812,,,,,,,,,,
acc,1778675332.0,77.0,11.070312,0.011719,-7.847656,,,,,,,,,,
acc,1778675332.0,77.0,12.21875,-0.140625,-10.03125,,,,,,,,,,
acc,1778675332.0,77.0,9.195312,-1.441406,-7.847656,,,,,,,,,,
acc,1778675332.0,77.0,6.972656,-0.21875,-11.449219,,,,,,,,,,
acc,1778675332.0,77.0,10.496094,-0.292969,-8.421875,,,,,,,,,,
acc,1778675332.0,77.0,12.835938,-0.0625,-9.1875,,,,,,,,,,
acc,1778675332.0,77.0,9.199219,-0.371094,-7.808594,,,,,,,,,,
acc,1778675332.0,77.0,9.386719,-0.101562,-10.152344,,,,,,,,,,
acc,1778675332.0,77.0,9.5,0.011719,-7.082031,,,,,,,,,,
acc,1778675332.0,77.0,10.304688,1.160156,-11.105469,,,,,,,,,,
acc,1778675332.0,77.0,9.882812,3.0,-7.464844,,,,,,,,,,
acc,1778675332.0,77.0,8.925781,1.390625,-9.726562,,,,,,,,,,
acc,1778675332.0,77.0,10.769531,-0.371094,-10.03125,,,,,,,,,,
acc,1778675332.0,77.0,12.21875,0.242188,-8.308594,,,,,,,,,,
acc,1778675333.0,78.0,10.769531,1.199219,-8.613281,,,,,,,,,,
acc,1778675333.0,78.0,10.269531,2.886719,-13.054688,,,,,,,,,,
acc,1778675333.0,78.0,11.03125,2.042969,-8.460938,,,,,,,,,,
acc,1778675333.0,78.0,9.539062,0.664062,-7.808594,,,,,,,,,,
acc,1778675333.0,78.0,9.769531,0.472656,-13.632812,,,,,,,,,,
acc,1778675333.0,78.0,10.726562,-0.445312,-6.929688,,,,,,,,,,
acc,1778675333.0,78.0,9.425781,0.433594,-10.601562,,,,,,,,,,
acc,1778675333.0,78.0,9.578125,1.390625,-10.605469,,,,,,,,,,
acc,1778675333.0,78.0,11.492188,0.585938,-8.882812,,,,,,,,,,
acc,1778675333.0,78.0,10.996094,0.703125,-10.414062,,,,,,,,,,
acc,1778675333.0,78.0,11.417969,1.046875,-9.878906,,,,,,,,,,
acc,1778675333.0,78.0,11.226562,0.585938,-8.691406,,,,,,,,,,
acc,1778675333.0,78.0,9.617188,0.816406,-10.722656,,,,,,,,,,
acc,1778675333.0,78.0,9.964844,0.742188,-9.726562,,,,,,,,,,
acc,1778675333.0,78.0,10.648438,0.96875,-9.417969,,,,,,,,,,
acc,1778675333.0,78.0,11.226562,0.816406,-9.34375,,,,,,,,,,
acc,1778675333.0,78.0,11.875,0.703125,-9.1875,,,,,,,,,,
acc,1778675333.0,78.0,11.335938,1.351562,-9.417969,,,,,,,,,,
acc,1778675333.0,78.0,10.804688,1.316406,-9.609375,,,,,,,,,,
acc,1778675333.0,78.0,10.347656,0.777344,-9.726562,,,,,,,,,,
acc,1778675333.0,78.0,10.492188,0.742188,-9.1875,,,,,,,,,,
acc,1778675333.0,78.0,11.230469,1.125,-9.457031,,,,,,,,,,
acc,1778675333.0,78.0,11.53125,0.933594,-8.957031,,,,,,,,,,
acc,1778675333.0,78.0,11.1875,0.816406,-9.535156,,,,,,,,,,
acc,1778675333.0,78.0,10.875,0.742188,-9.1875,,,,,,,,,,
acc,1778675333.0,78.0,10.769531,0.855469,-9.34375,,,,,,,,,,
acc,1778675333.0,78.0,11.269531,1.199219,-9.113281,,,,,,,,,,
acc,1778675333.0,78.0,11.535156,0.742188,-9.074219,,,,,,,,,,
acc,1778675333.0,78.0,11.375,0.625,-9.378906,,,,,,,,,,
acc,1778675333.0,78.0,11.074219,1.238281,-9.378906,,,,,,,,,,
acc,1778675333.0,78.0,10.570312,0.933594,-9.074219,,,,,,,,,,
acc,1778675333.0,78.0,11.53125,0.703125,-9.457031,,,,,,,,,,
acc,1778675333.0,78.0,12.0625,0.894531,-7.964844,,,,,,,,,,
acc,1778675333.0,78.0,11.796875,0.816406,-10.222656,,,,,,,,,,
acc,1778675333.0,78.0,12.5625,0.625,-9.378906,,,,,,,,,,
acc,1778675333.0,78.0,12.03125,0.242188,-8.269531,,,,,,,,,,
acc,1778675333.0,78.0,9.691406,0.394531,-8.382812,,,,,,,,,,
acc,1778675333.0,78.0,9.921875,0.703125,-9.457031,,,,,,,,,,
acc,1778675333.0,78.0,10.53125,0.28125,-10.261719,,,,,,,,,,
acc,1778675333.0,78.0,11.722656,-0.21875,-7.617188,,,,,,,,,,
acc,1778675333.0,78.0,10.347656,1.199219,-8.574219,,,,,,,,,,
acc,1778675333.0,78.0,9.769531,-0.753906,-7.234375,,,,,,,,,,
acc,1778675333.0,78.0,11.269531,0.472656,-11.105469,,,,,,,,,,
acc,1778675333.0,78.0,10.570312,0.164062,-6.546875,,,,,,,,,,
acc,1778675333.0,78.0,10.148438,-0.332031,-9.496094,,,,,,,,,,
acc,1778675333.0,78.0,9.421875,-0.675781,-8.230469,,,,,,,,,,
acc,1778675333.0,78.0,8.238281,-0.984375,-9.347656,,,,,,,,,,
acc,1778675333.0,78.0,9.195312,0.894531,-10.496094,,,,,,,,,,
acc,1778675333.0,78.0,10.0,0.320312,-6.738281,,,,,,,,,,
acc,1778675333.0,78.0,8.085938,0.664062,-10.605469,,,,,,,,,,
acc,1778675333.0,78.0,9.460938,0.585938,-8.765625,,,,,,,,,,
acc,1778675333.0,78.0,10.609375,0.164062,-6.8125,,,,,,,,,,
acc,1778675333.0,78.0,8.582031,0.433594,-8.117188,,,,,,,,,,
acc,1778675333.0,78.0,8.503906,1.125,-8.808594,,,,,,,,,,
acc,1778675333.0,78.0,8.578125,1.773438,-8.460938,,,,,,,,,,
acc,1778675333.0,78.0,6.859375,0.050781,-8.304688,,,,,,,,,,
acc,1778675333.0,78.0,5.746094,1.773438,-8.304688,,,,,,,,,,
acc,1778675333.0,78.0,9.464844,3.152344,-10.375,,,,,,,,,,
acc,1778675333.0,78.0,11.570312,2.464844,-6.390625,,,,,,,,,,
acc,1778675333.0,78.0,9.082031,2.539062,-9.757812,,,,,,,,,,
acc,1778675333.0,78.0,7.125,0.511719,-9.378906,,,,,,,,,,
acc,1778675333.0,78.0,6.589844,0.742188,-9.269531,,,,,,,,,,
acc,1778675333.0,78.0,8.277344,2.347656,-8.84375,,,,,,,,,,
acc,1778675333.0,78.0,10.460938,3.078125,-8.539062,,,,,,,,,,
acc,1778675333.0,78.0,11.679688,2.121094,-9.265625,,,,,,,,,,
acc,1778675333.0,78.0,10.082031,1.46875,-7.964844,,,,,,,,,,
acc,1778675333.0,78.0,8.429688,0.320312,-10.496094,,,,,,,,,,
acc,1778675333.0,78.0,7.316406,3.230469,-9.226562,,,,,,,,,,
acc,1778675333.0,78.0,7.777344,2.503906,-10.183594,,,,,,,,,,
acc,1778675333.0,78.0,10.113281,0.777344,-10.183594,,,,,,,,,,
acc,1778675333.0,78.0,11.652344,1.125,-7.578125,,,,,,,,,,
acc,1778675333.0,78.0,9.6875,-0.027344,-8.421875,,,,,,,,,,
acc,1778675333.0,78.0,8.621094,1.507812,-12.632812,,,,,,,,,,
acc,1778675333.0,78.0,8.890625,1.507812,-7.234375,,,,,,,,,,
acc,1778675333.0,78.0,10.230469,0.320312,-11.5625,,,,,,,,,,
acc,1778675333.0,78.0,11.457031,0.742188,-9.953125,,,,,,,,,,
acc,1778675333.0,78.0,11.652344,0.511719,-9.570312,,,,,,,,,,
acc,1778675333.0,78.0,9.925781,-0.140625,-8.882812,,,,,,,,,,
acc,1778675333.0,78.0,10.152344,-0.140625,-10.949219,,,,,,,,,,
acc,1778675333.0,78.0,11.375,-0.945312,-9.726562,,,,,,,,,,
acc,1778675333.0,78.0,11.878906,-0.027344,-10.03125,,,,,,,,,,
acc,1778675333.0,78.0,12.523438,0.394531,-9.992188,,,,,,,,,,
acc,1778675333.0,78.0,12.796875,0.242188,-10.148438,,,,,,,,,,
acc,1778675333.0,78.0,12.144531,-0.332031,-9.457031,,,,,,,,,,
acc,1778675333.0,78.0,11.269531,-1.25,-10.796875,,,,,,,,,,
acc,1778675333.0,78.0,10.421875,-0.371094,-11.105469,,,,,,,,,,
acc,1778675333.0,78.0,11.109375,0.203125,-11.179688,,,,,,,,,,
acc,1778675333.0,78.0,14.328125,1.738281,-7.617188,,,,,,,,,,
acc,1778675333.0,78.0,14.027344,1.507812,-8.0,,,,,,,,,,
acc,1778675333.0,78.0,11.683594,-0.753906,-12.710938,,,,,,,,,,
acc,1778675333.0,78.0,11.453125,0.203125,-9.917969,,,,,,,,,,
acc,1778675333.0,78.0,11.800781,1.429688,-11.027344,,,,,,,,,,
