sensor,time,t,ax,ay,az,wx,wy,wz,lat,lon,alt,v_kmh,satellites,x,y
acc,1778674613.0,412.0,0.0,0.320312,-9.835938,,,,,,,,,,
acc,1778674613.0,412.0,0.0,0.320312,-9.824949640891537,,,,,,,,,,
acc,1778674613.0,412.0,0.0,0.320312,-9.819193316660966,,,,,,,,,,
acc,1778674613.0,412.0,0.0,0.320312,-9.81565054853513,,,,,,,,,,
acc,1778674613.0,412.0,0.006305503719263261,0.320312,-9.818925409030397,,,,,,,,,,
acc,1778674613.0,412.0,0.005428729700138301,0.320312,-9.816402447005709,,,,,,,,,,
acc,1778674613.0,412.0,0.0047656707800714775,0.320312,-9.818788497405487,,,,,,,,,,
acc,1778674613.0,412.0,0.0042466373940114365,0.320312,-9.82065626478004,,,,,,,,,,
acc,1778674613.0,412.0,0.0038292692179168046,0.320312,-9.822158184855747,,,,,,,,,,
acc,1778674613.0,412.0,0.00033789870536795295,0.320312,-9.826890494236322,,,,,,,,,,
acc,1778674613.0,412.0,-0.002582016277614333,0.32320419992170607,-9.827634789695585,,,,,,,,,,
acc,1778674613.0,412.0,-0.005060350804852922,0.3229841519537716,-9.828266524915929,,,,,,,,,,
acc,1778674613.0,412.0,-0.007190395345250603,0.32528329402503403,-9.82632121408686,,,,,,,,,,
acc,1778674613.0,412.0,-0.009040890168889038,0.32495434158600467,-9.824631208290604,,,,,,,,,,
acc,1778674613.0,412.0,-0.010663602566987763,0.32466588079466446,-9.823149229890333,,,,,,,,,,
acc,1778674613.0,412.0,-0.012098260856334428,0.3244108493633815,-9.823898340511233,,,,,,,,,,
acc,1778674613.0,412.0,-0.013375861789282658,0.32201935984786917,-9.824781869868227,,,,,,,,,,
acc,1778674613.0,412.0,-0.014520944398393432,0.3219295960433251,-9.825368399231598,,,,,,,,,,
acc,1778674613.0,412.0,-0.015553188441849742,0.3218486777306887,-9.824138443912315,,,,,,,,,,
acc,1778674613.0,412.0,-0.016488560458773928,0.3217753532820986,-9.824701474095194,,,,,,,,,,
acc,1778674613.0,412.0,-0.01912216444234696,0.3233124232043534,-9.825392260738449,,,,,,,,,,
acc,1778674613.0,412.0,-0.019822921650986616,0.32318129000282714,-9.824316628004524,,,,,,,,,,
acc,1778674613.0,412.0,-0.020466163658867734,0.3230609196622731,-9.824804159241667,,,,,,,,,,
acc,1778674613.0,412.0,-0.02105873644675483,0.32295003108937664,-9.823835089871858,,,,,,,,,,
acc,1778674613.0,412.0,-0.021606440766710568,0.3228475387852233,-9.822939396564589,,,,,,,,,,
acc,1778674613.0,412.0,-0.020796717423510764,0.32275251689040263,-9.822108988116481,,,,,,,,,,
acc,1778674613.0,412.0,-0.020043882227302547,0.32266417088008664,-9.821336921073812,,,,,,,,,,
acc,1778674613.0,412.0,-0.019342092205096185,0.3225818150751857,-9.819112743378819,,,,,,,,,,
acc,1778674613.0,412.0,-0.0186862783425856,0.3225048546214841,-9.819683221298966,,,,,,,,,,
acc,1778674613.0,412.0,-0.018072021551906108,0.32243277093432476,-9.81906186601468,,,,,,,,,,
acc,1778674613.0,412.0,-0.0174954517509745,0.32236510985546246,-9.818478633239716,,,,,,,,,,
acc,1778674613.0,412.0,-0.016953165181488376,0.32230147195024317,-9.817930079881151,,,,,,,,,,
acc,1778674613.0,412.0,-0.01644215623252648,0.32224150450703126,-9.817413165594532,,,,,,,,,,
acc,1778674613.0,412.0,-0.015959760885114083,0.322184894900369,-9.817956664500782,,,,,,,,,,
acc,1778674613.0,412.0,-0.014387165221818196,0.3210149207453759,-9.81735412227684,,,,,,,,,,
acc,1778674613.0,412.0,-0.013986253822787254,0.31990683518699176,-9.817980823103792,,,,,,,,,,
acc,1778674613.0,412.0,-0.013605977107191877,0.31885578216689925,-9.817406970148488,,,,,,,,,,
acc,1778674613.0,412.0,-0.012207715972666426,0.31889444271380585,-9.81696557389294,,,,,,,,,,
acc,1778674613.0,412.0,-0.010877724485987558,0.3179179054465266,-9.816444402832536,,,,,,,,,,
acc,1778674613.0,412.0,-0.010601818446198341,0.3179786300169991,-9.816047111335521,,,,,,,,,,
acc,1778674613.0,412.0,-0.010338722268712656,0.3180365352458335,-9.815668265427357,,,,,,,,,,
acc,1778674613.0,412.0,-0.010087547676066707,0.31809181663533725,-9.816160709483015,,,,,,,,,,
acc,1778674613.0,412.0,-0.00984748680350041,0.3181446519896665,-9.8166313643707,,,,,,,,,,
acc,1778674613.0,412.0,-0.009617803303435826,0.31819520337265433,-9.816261669316662,,,,,,,,,,
acc,1778674613.0,412.0,-0.009397824605213032,0.3173501915246173,-9.81581825680919,,,,,,,,,,
acc,1778674613.0,412.0,-0.008310374475437893,0.31741665521979495,-9.816269748689775,,,,,,,,,,
acc,1778674613.0,412.0,-0.008127318221555092,0.3166199964844306,-9.815842532076296,,,,,,,,,,
acc,1778674613.0,412.0,-0.0071064971636964226,0.31585485643603717,-9.816361742880762,,,,,,,,,,
acc,1778674613.0,412.0,-0.006955453960157105,0.3159495896396153,-9.816030586016273,,,,,,,,,,
acc,1778674613.0,412.0,-0.006810142047840961,0.31604072821883766,-9.815711994804435,,,,,,,,,,
acc,1778674613.0,412.0,-0.007392485307739805,0.31612847812350287,-9.815405249310874,,,,,,,,,,
acc,1778674613.0,412.0,-0.007243078393919339,0.3162130298089575,-9.815109683764847,,,,,,,,,,
acc,1778674613.0,412.0,-0.0070990111975879995,0.3162945596656224,-9.814824681562074,,,,,,,,,,
acc,1778674613.0,412.0,-0.0069599946302762675,0.3156082986847521,-9.815314623001651,,,,,,,,,,
acc,1778674613.0,412.0,-0.006825760194335251,0.3156990169577434,-9.815712377242226,,,,,,,,,,
acc,1778674613.0,412.0,-0.006696058182782424,0.3157866721291536,-9.816096701314843,,,,,,,,,,
acc,1778674613.0,412.0,-0.007229048919446551,0.31587142134793345,-9.815809872656557,,,,,,,,,,
acc,1778674613.0,412.0,-0.0077446854998237825,0.3159534111356637,-9.815532383127492,,,,,,,,,,
acc,1778674613.0,412.0,-0.008243828119477728,0.31603277826939696,-9.815263769813901,,,,,,,,,,
acc,1778674613.0,412.0,-0.009429011802106858,0.3161096505779473,-9.814933432365649,,,,,,,,,,
acc,1778674613.0,412.0,-0.009885086581588381,0.316184147661369,-9.814682545343016,,,,,,,,,,
acc,1778674613.0,412.0,-0.010327305923963491,0.3162563815421309,-9.814439280205038,,,,,,,,,,
acc,1778674613.0,412.0,-0.01014886376115881,0.3163264572554352,-9.81481074959754,,,,,,,,,,
acc,1778674613.0,412.0,-0.009975666162008576,0.31572785249274365,-9.814504663237296,,,,,,,,,,
acc,1778674613.0,412.0,-0.00980747727694536,0.3158051408307543,-9.814273283439558,,,,,,,,,,
acc,1778674613.0,412.0,-0.010229807942732488,0.3158802294209002,-9.814634238366558,,,,,,,,,,
acc,1778674613.0,412.0,-0.010640305861186874,0.3159532141990648,-9.814985080155216,,,,,,,,,,
acc,1778674613.0,412.0,-0.011039479385504937,0.31602418554827705,-9.814753804112076,,,,,,,,,,
acc,1778674613.0,412.0,-0.011427807862723238,0.31609322869439455,-9.814528811550751,,,,,,,,,,
acc,1778674613.0,412.0,-0.011805743671672378,0.3161604240684429,-9.814309840368722,,,,,,,,,,
acc,1778674613.0,412.0,-0.012173714091574982,0.31561028006904457,-9.81403508940063,,,,,,,,,,
acc,1778674613.0,412.0,-0.011983864926472163,0.3156836034276124,-9.814376665460271,,,,,,,,,,
acc,1778674613.0,412.0,-0.012341557536107167,0.31515207513166227,-9.814106504062904,,,,,,,,,,
acc,1778674613.0,412.0,-0.012152947935515617,0.31523093157791326,-9.814440143452986,,,,,,,,,,
acc,1778674613.0,412.0,-0.011969033998763432,0.3153078247976795,-9.814233435841102,,,,,,,,,,
acc,1778674613.0,412.0,-0.011789635697384278,0.31538283005969087,-9.81403180351726,,,,,,,,,,
acc,1778674613.0,412.0,-0.012136581375491126,0.31545601877597107,-9.813835054508633,,,,,,,,,,
acc,1778674613.0,412.0,-0.012475237249537871,0.31552745874552907,-9.813643006555052,,,,,,,,,,
acc,1778674613.0,412.0,-0.01280590865724281,0.315597214379819,-9.813455486502916,,,,,,,,,,
acc,1778674613.0,412.0,-0.012620852739943024,0.3156653469115407,-9.813272329743885,,,,,,,,,,
acc,1778674613.0,412.0,-0.012440047151845402,0.315731914588199,-9.81309337969455,,,,,,,,,,
acc,1778674613.0,412.0,-0.011708481372296986,0.3152421129177593,-9.81286300416114,,,,,,,,,,
acc,1778674613.0,412.0,-0.010993294850317917,0.3153135306946085,-9.812692809073345,,,,,,,,,,
acc,1778674613.0,412.0,-0.011330896415309643,0.31538336935917893,-9.813017591120172,,,,,,,,,,
acc,1778674613.0,412.0,-0.011173844195544836,0.3154516827877172,-9.813335280114984,,,,,,,,,,
acc,1778674613.0,412.0,-0.011020180316950864,0.3155185223803378,-9.813162632336685,,,,,,,,,,
acc,1778674613.0,412.0,-0.01086979198034642,0.3160637118149002,-9.81240728267019,,,,,,,,,,
acc,1778674613.0,412.0,-0.01119872452309338,0.31612125065480123,-9.812249816230048,,,,,,,,,,
acc,1778674613.0,412.0,-0.011520809282932074,0.31617759163972226,-9.812095627957486,,,,,,,,,,
acc,1778674613.0,412.0,-0.011367042022685998,0.31571141604896835,-9.811892479532514,,,,,,,,,,
acc,1778674613.0,412.0,-0.010698742896900629,0.31577238421551,-9.811745227239788,,,,,,,,,,
acc,1778674613.0,412.0,-0.010557946344869574,0.3153180661042819,-9.812115009966513,,,,,,,,,,
acc,1778674613.0,412.0,-0.009909396798791997,0.31538333851587824,-9.812426384534819,,,,,,,,,,
acc,1778674613.0,412.0,-0.009780744090684879,0.31494018879385477,-9.8122244824639,,,,,,,,,,
acc,1778674613.0,412.0,-0.010108026754666996,0.31500947285105757,-9.812076887758279,,,,,,,,,,
acc,1778674613.0,412.0,-0.010429008870818901,0.3150774231146797,-9.811932134411533,,,,,,,,,,
acc,1778674613.0,412.0,-0.010296208095850976,0.31514407910046033,-9.81223781998467,,,,,,,,,,
acc,1778674613.0,412.0,-0.010165910401485496,0.3152094787283238,-9.81209283483918,,,,,,,,,,
acc,1778674613.0,412.0,-0.010038043258987982,0.3152736584022315,-9.81195055422287,,,,,,,,,,
acc,1778674613.0,412.0,-0.009912537010266568,0.3153366530852985,-9.811810900625627,,,,,,,,,,
acc,1778674613.0,412.0,-0.009789324727004242,0.31491295788486084,-9.811625248212248,,,,,,,,,,
acc,1778674613.0,412.0,-0.00966834207798406,0.3149796826524497,-9.811491228153466,,,,,,,,,,
acc,1778674613.0,412.0,-0.009549527204057048,0.3150452118412473,-9.811359609474946,,,,,,,,,,
acc,1778674613.0,412.0,-0.009432820600244331,0.3151095782696447,-9.811230326259295,,,,,,,,,,
acc,1778674613.0,412.0,-0.009318165004503375,0.315172813519001,-9.811103315073764,,,,,,,,,,
acc,1778674613.0,412.0,-0.009205505292723253,0.3152349479915558,-9.810978514853918,,,,,,,,,,
acc,1778674613.0,412.0,-0.009094788379546062,0.31529601096512877,-9.810855866793784,,,,,,,,,,
acc,1778674613.0,412.0,-0.008985963124641092,0.31535603064481127,-9.810735314242013,,,,,,,,,,
acc,1778674613.0,412.0,-0.008413925444472031,0.31541503421184236,-9.810616802603718,,,,,,,,,,
acc,1778674613.0,412.0,-0.007851484900419052,0.31547304786984515,-9.810916779232006,,,,,,,,,,
acc,1778674613.0,412.0,-0.0072983965028837324,0.31553009688858885,-9.811211767910173,,,,,,,,,,
acc,1778674613.0,412.0,-0.0072127603147038,0.3155862056454295,-9.811089377847745,,,,,,,,,,
acc,1778674613.0,412.0,-0.0066723226093285785,0.31564139766457106,-9.810968987465769,,,,,,,,,,
acc,1778674613.0,412.0,-0.006594753662465639,0.3156956956542798,-9.811259264198458,,,,,,,,,,
acc,1778674613.0,412.0,-0.006925301613966992,0.316156004147843,-9.811137996074331,,,,,,,,,,
acc,1778674613.0,412.0,-0.006845506041067502,0.3166089812456334,-9.81142374976875,,,,,,,,,,
acc,1778674613.0,412.0,-0.00676697089189518,0.316651464172172,-9.811704989795011,,,,,,,,,,
acc,1778674613.0,412.0,-0.006243428375641991,0.31669328152265663,-9.81198182365997,,,,,,,,,,
acc,1778674613.0,412.0,-0.0057280221347821144,0.31673444899759307,-9.812254355302104,,,,,,,,,,
acc,1778674613.0,412.0,-0.005663125036338845,0.31677498178083413,-9.812522685239609,,,,,,,,,,
acc,1778674613.0,412.0,-0.005599220625963129,0.31637410717542724,-9.812830987192903,,,,,,,,,,
acc,1778674613.0,412.0,-0.0055362861466820845,0.31641836855588257,-9.813090706878178,,,,,,,,,,
acc,1778674613.0,412.0,-0.005867920851309827,0.3164619632820266,-9.813346514727758,,,,,,,,,,
acc,1778674613.0,412.0,-0.006194598268232611,0.3165049063526083,-9.813206359756423,,,,,,,,,,
acc,1778674613.0,412.0,-0.006516428897585129,0.31693789087790275,-9.813068284210654,,,,,,,,,,
acc,1778674613.0,412.0,-0.007266016527926127,0.3169752482547374,-9.812888995812278,,,,,,,,,,
acc,1778674613.0,412.0,-0.007573700070166998,0.31701205944889205,-9.813143273455028,,,,,,,,,,
acc,1778674614.0,413.0,-0.007876917383789515,0.317048336304396,-9.813823275866,,,,,,,,,,
acc,1778674614.0,413.0,-0.008175764445581055,0.31708409030389184,-9.814493477445529,,,,,,,,,,
acc,1778674614.0,413.0,-0.008470334327727558,0.3166928541437644,-9.815196732579805,,,,,,,,,,
acc,1778674614.0,413.0,-0.009185785602495805,0.31673223627403185,-9.815464934507784,,,,,,,,,,
acc,1778674614.0,413.0,-0.009467458974503552,0.31677106245021397,-9.815305672312876,,,,,,,,,,
acc,1778674614.0,413.0,-0.009745182684677495,0.3168093442005417,-9.815148643313846,,,,,,,,,,
acc,1778674614.0,413.0,-0.01044002425470969,0.31684709271546324,-9.815414787946299,,,,,,,,,,
acc,1778674614.0,413.0,-0.011544923384397365,0.316884318860153,-9.815635284484495,,,,,,,,,,
acc,1778674614.0,413.0,-0.012216233347801603,0.31692103318647113,-9.81589458709898,,,,,,,,,,
acc,1778674614.0,413.0,-0.012878372290258963,0.31695724594440194,-9.81569147343216,,,,,,,,,,
acc,1778674614.0,413.0,-0.013531522309920312,0.3169929670929976,-9.815948647572558,,,,,,,,,,
acc,1778674614.0,413.0,-0.014175860376830971,0.3166134727525018,-9.81578760788054,,,,,,,,,,
acc,1778674614.0,413.0,-0.014397984599632317,0.3162390670506431,-9.816042301485966,,,,,,,,,,
acc,1778674614.0,413.0,-0.01502957659286879,0.31586965147900664,-9.815881172227956,,,,,,,,,,
acc,1778674614.0,413.0,-0.015241494058896942,0.31591642636904743,-9.815722177747396,,,,,,,,,,
acc,1778674614.0,413.0,-0.015450620337386136,0.3159625851820245,-9.815565277400092,,,,,,,,,,
acc,1778674614.0,413.0,-0.015657008134025,0.3160081395512536,-9.815410431642754,,,,,,,,,,
acc,1778674614.0,413.0,-0.015860708737844644,0.3160531007973627,-9.815257601994961,,,,,,,,,,
acc,1778674614.0,413.0,-0.0160617720698389,0.31609747993902354,-9.81510675100269,,,,,,,,,,
acc,1778674614.0,413.0,-0.015894818226067163,0.31573525834253463,-9.814917241346137,,,,,,,,,,
acc,1778674614.0,413.0,-0.01573000212638066,0.31578271536271113,-9.81513520920236,,,,,,,,,,
acc,1778674614.0,413.0,-0.015163212815266941,0.31542549581986307,-9.814946318652774,,,,,,,,,,
acc,1778674614.0,413.0,-0.015006726962905281,0.31507280133100984,-9.814759820861235,,,,,,,,,,
acc,1778674614.0,413.0,-0.014852212975164293,0.3151267457707877,-9.814615890518494,,,,,,,,,,
acc,1778674614.0,413.0,-0.014298351294453497,0.3151800139808537,-9.814032343128348,,,,,,,,,,
acc,1778674614.0,413.0,-0.013751397197614394,0.3152326178470203,-9.81389651425472,,,,,,,,,,
acc,1778674614.0,413.0,-0.013211230203281413,0.31528456895670515,-9.81376237086895,,,,,,,,,,
acc,1778674614.0,413.0,-0.012677732832253059,0.3153358786085899,-9.813629883796619,,,,,,,,,,
acc,1778674614.0,413.0,-0.012150790510932282,0.3153865578219068,-9.813499024584877,,,,,,,,,,
acc,1778674614.0,413.0,-0.011233276328483175,0.3154366173453699,-9.813369765479381,,,,,,,,,,
acc,1778674614.0,413.0,-0.010326927902598605,0.31508986729500643,-9.81363828991573,,,,,,,,,,
acc,1778674614.0,413.0,-0.009036135574701244,0.31474731727517796,-9.813468600559593,,,,,,,,,,
acc,1778674614.0,413.0,-0.008155555402321196,0.31480353670417865,-9.813695606638646,,,,,,,,,,
acc,1778674614.0,413.0,-0.00728554373761084,0.3148590814013546,-9.813919888246307,,,,,,,,,,
acc,1778674614.0,413.0,-0.006819077573111696,0.31491396245478076,-9.813787651534028,,,,,,,,,,
acc,1778674614.0,413.0,-0.006358160074374936,0.31496819069210724,-9.814010172096994,,,,,,,,,,
acc,1778674614.0,413.0,-0.0059027013566345845,0.315021776688529,-9.813877514225464,,,,,,,,,,
acc,1778674614.0,413.0,-0.005452613615619555,0.31507473077446496,-9.813746420715999,,,,,,,,,,
acc,1778674614.0,413.0,-0.005007811064654125,0.31512706304295834,-9.81361686658219,,,,,,,,,,
acc,1778674614.0,413.0,-0.004178552171974397,0.31478913562986516,-9.813878485109672,,,,,,,,,,
acc,1778674614.0,413.0,-0.003747950730233991,0.3144551435915695,-9.814137056926768,,,,,,,,,,
acc,1778674614.0,413.0,-0.003322343622664668,0.31451337116887157,-9.814004273948507,,,,,,,,,,
acc,1778674614.0,413.0,-0.002901653247294332,0.31491988068143795,-9.813873024916305,,,,,,,,,,
acc,1778674614.0,413.0,-0.002872898574330261,0.3149733152631658,-9.81374328615608,,,,,,,,,,
acc,1778674614.0,413.0,-0.002844473499206152,0.3150261373558301,-9.813615034514669,,,,,,,,,,
acc,1778674614.0,413.0,-0.002816373002472266,0.3150783562870347,-9.813488247344718,,,,,,,,,,
acc,1778674614.0,413.0,-0.003135372525653961,0.31512998118206104,-9.81370969270626,,,,,,,,,,
acc,1778674614.0,413.0,-0.003450756564701365,0.31518102096966455,-9.813582352811732,,,,,,,,,,
acc,1778674614.0,413.0,-0.0037625791122155726,0.3152314843876713,-9.813456450909937,,,,,,,,,,
acc,1778674614.0,413.0,-0.0037256269287449305,0.3148977531867455,-9.813293604947644,,,,,,,,,,
acc,1778674614.0,413.0,-0.004033870001593875,0.31456776388584756,-9.813553989236999,,,,,,,,,,
acc,1778674614.0,413.0,-0.004338668976591738,0.31424146166032035,-9.813811464169905,,,,,,,,,,
acc,1778674614.0,413.0,-0.004640074000951087,0.31430083379591367,-9.813684021356394,,,,,,,,,,
acc,1778674614.0,413.0,-0.005319676763655404,0.3143595470499732,-9.813519841510441,,,,,,,,,,
acc,1778674614.0,413.0,-0.005991762692724268,0.3144176108985459,-9.813357477596758,,,,,,,,,,
acc,1778674614.0,413.0,-0.006656439240474215,0.31447503462481236,-9.81361551193858,,,,,,,,,,
acc,1778674614.0,413.0,-0.007313811687475233,0.3145318273243284,-9.813870710752601,,,,,,,,,,
acc,1778674614.0,413.0,-0.007963983201231551,0.3142084010460709,-9.813743507507692,,,,,,,,,,
acc,1778674614.0,413.0,-0.008227909120940288,0.3138885065574573,-9.813996839084266,,,,,,,,,,
acc,1778674614.0,413.0,-0.008867655705881754,0.31357209455654056,-9.81420954632366,,,,,,,,,,
acc,1778674614.0,413.0,-0.009500458847277665,0.3136373576874432,-9.814041694300313,,,,,,,,,,
acc,1778674614.0,413.0,-0.010126414360419734,0.31370191459925517,-9.813875658621074,,,,,,,,,,
acc,1778674614.0,413.0,-0.010745616202919759,0.31376577498214314,-9.813711414363539,,,,,,,,,,
acc,1778674614.0,413.0,-0.01098118493133108,0.31382894833968517,-9.813586631349278,,,,,,,,,,
acc,1778674614.0,413.0,-0.011590788065632764,0.3135148921219212,-9.8138020952196,,,,,,,,,,
acc,1778674614.0,413.0,-0.011479173937905091,0.31358034524405465,-9.813676707870892,,,,,,,,,,
acc,1778674614.0,413.0,-0.011706932108885402,0.31364510009636737,-9.813890849376417,,,,,,,,,,
acc,1778674614.0,413.0,-0.011594433768204885,0.313709165999344,-9.81376486963316,,,,,,,,,,
acc,1778674614.0,413.0,-0.011483129145692918,0.3133975634415272,-9.814015224917338,,,,,,,,,,
acc,1778674614.0,413.0,-0.011373002476294919,0.31346387497205924,-9.813888304711728,,,,,,,,,,
acc,1778674614.0,413.0,-0.011264038284430998,0.3135294865298698,-9.813762724253234,,,,,,,,,,
acc,1778674614.0,413.0,-0.01115622137678117,0.31393092236811065,-9.813974981136328,,,,,,,,,,
acc,1778674614.0,413.0,-0.011049536835290717,0.3139919432387425,-9.813848809937278,,,,,,,,,,
acc,1778674614.0,413.0,-0.010943970010388033,0.3140523248036385,-9.813723960613359,,,,,,,,,,
acc,1778674614.0,413.0,-0.010466647937847195,0.31373921671562066,-9.81397328427076,,,,,,,,,,
acc,1778674614.0,413.0,-0.00999430270110084,0.3138019000919252,-9.814182757561133,,,,,,,,,,
acc,1778674614.0,413.0,-0.009526870865866233,0.31386393142694313,-9.81405505922703,,,,,,,,,,
acc,1778674614.0,413.0,-0.009064290109724754,0.3135534369291008,-9.814300577748252,,,,,,,,,,
acc,1778674614.0,413.0,-0.00823492086604156,0.31361772629692847,-9.814506399042422,,,,,,,,,,
acc,1778674614.0,413.0,-0.0074141202458681025,0.3133100899587788,-9.814338822889926,,,,,,,,,,
acc,1778674614.0,413.0,-0.006972750593075375,0.3133765849800377,-9.813802004754926,,,,,,,,,,
acc,1778674614.0,413.0,-0.006535921105068092,0.3134423959978722,-9.813678446817343,,,,,,,,,,
acc,1778674614.0,413.0,-0.006103575529645953,0.31350753148701827,-9.813556157161793,,,,,,,,,,
acc,1778674614.0,413.0,-0.005675658562957662,0.31357199977933725,-9.813435120145492,,,,,,,,,,
acc,1778674614.0,413.0,-0.0056219256670015675,0.3136358090671201,-9.813648160603885,,,,,,,,,,
acc,1778674614.0,413.0,-0.005199205202387537,0.3133294316830519,-9.813489482552713,,,,,,,,,,
acc,1778674614.0,413.0,-0.0047807885275788315,0.31302617357986195,-9.81373862103654,,,,,,,,,,
acc,1778674614.0,413.0,-0.004366623487368082,0.3130949998268596,-9.813616215646329,,,,,,,,,,
acc,1778674614.0,413.0,-0.003956658778392302,0.3131631280597639,-9.81382693252132,,,,,,,,,,
acc,1778674614.0,413.0,-0.003550843929995204,0.31323056666582505,-9.813703864223081,,,,,,,,,,
acc,1778674614.0,413.0,-0.003517369843898387,0.31329732389700454,-9.813582039361682,,,,,,,,,,
acc,1778674614.0,413.0,-0.0034842333482362534,0.3133634078729792,-9.813461443119573,,,,,,,,,,
acc,1778674614.0,413.0,-0.0034514304364252606,0.313428826584062,-9.8129375219029,,,,,,,,,,
acc,1778674614.0,413.0,-0.0037497273604168526,0.3134935878940416,-9.812823145548323,,,,,,,,,,
acc,1778674614.0,413.0,-0.003714469708008478,0.3135576995429435,-9.812709916574272,,,,,,,,,,
acc,1778674614.0,413.0,-0.003679565141172476,0.31325410674325455,-9.812964893328134,,,,,,,,,,
acc,1778674614.0,413.0,-0.0036450095350832063,0.3129535491329315,-9.813217320934807,,,,,,,,,,
acc,1778674614.0,413.0,-0.003940759994250367,0.31302261282120614,-9.813100598243055,,,,,,,,,,
acc,1778674614.0,413.0,-0.004233563375271962,0.3130909883073832,-9.812985038663257,,,,,,,,,,
acc,1778674614.0,413.0,-0.004523453718658413,0.31315868354060733,-9.812870628760773,,,,,,,,,,
acc,1778674614.0,413.0,-0.004810464548093064,0.3132257063493338,-9.812757355304942,,,,,,,,,,
acc,1778674614.0,413.0,-0.0054604260629931515,0.31329206444385665,-9.812608628355916,,,,,,,,,,
acc,1778674614.0,413.0,-0.006103951249968806,0.31335776541877014,-9.812863529623147,,,,,,,,,,
acc,1778674614.0,413.0,-0.006741113386448885,0.3134228167553642,-9.812713969637787,,,,,,,,,,
acc,1778674614.0,413.0,-0.0070067728000483805,0.31348722582395705,-9.8126024046768,,,,,,,,,,
acc,1778674614.0,413.0,-0.007269813088310027,0.31355099988616614,-9.81249193963022,,,,,,,,,,
acc,1778674614.0,413.0,-0.0075302637630287545,0.31324931585740007,-9.812346080948407,,,,,,,,,,
acc,1778674614.0,413.0,-0.007788153905662426,0.3133152470096158,-9.8125663148389,,,,,,,,,,
acc,1778674614.0,413.0,-0.00804351217598528,0.31338053087358314,-9.81278438655257,,,,,,,,,,
acc,1778674614.0,413.0,-0.008660673520938744,0.3134451746706933,-9.813036748083679,,,,,,,,,,
acc,1778674614.0,413.0,-0.009271792032951823,0.3135091855187866,-9.813286638658715,,,,,,,,,,
acc,1778674614.0,413.0,-0.00951296696679887,0.3135725704341979,-9.813170117937661,,,,,,,,,,
acc,1778674614.0,413.0,-0.009751786590904723,0.31363533633375074,-9.813054735155717,,,,,,,,,,
acc,1778674614.0,413.0,-0.009988276852032718,0.3136974900367003,-9.813267757664674,,,,,,,,,,
acc,1778674614.0,413.0,-0.009895335611687863,0.3133955650886073,-9.813515050462314,,,,,,,,,,
acc,1778674614.0,413.0,-0.0098032986578894,0.31309657776720795,-9.813759937185438,,,,,,,,,,
acc,1778674614.0,413.0,-0.009712156118310335,0.31316366048389155,-9.81396612951298,,,,,,,,,,
acc,1778674614.0,413.0,-0.009621898256940455,0.3132300920598681,-9.814170320427571,,,,,,,,,,
acc,1778674614.0,413.0,-0.00953251547150163,0.3132958795626048,-9.814045940110612,,,,,,,,,,
acc,1778674614.0,413.0,-0.009443998290926991,0.3133610299629946,-9.813922764323214,,,,,,,,,,
acc,1778674614.0,413.0,-0.009356337372902125,0.3134255501371662,-9.813800780065112,,,,,,,,,,
acc,1778674614.0,413.0,-0.00926952350146647,0.3134894468682494,-9.813679974511865,,,,,,,,,,
acc,1778674614.0,413.0,-0.009183547584673183,0.31319042222033006,-9.813922648914492,,,,,,,,,,
acc,1778674614.0,413.0,-0.00909840065230579,0.31289428078419057,-9.813764588535781,,,,,,,,,,
acc,1778674614.0,413.0,-0.008652035124540181,0.3129630305061143,-9.813644252611025,,,,,,,,,,
acc,1778674615.0,414.0,-0.008209964567531291,0.31303111871179895,-9.813525074569766,,,,,,,,,,
acc,1778674615.0,414.0,-0.00777214336281253,0.31309855242745216,-9.813407042113695,,,,,,,,,,
acc,1778674615.0,414.0,-0.0073385264907620835,0.3131653385870468,-9.813615646409225,,,,,,,,,,
acc,1778674615.0,414.0,-0.00690906951989531,0.31323148403397033,-9.813496856197434,,,,,,,,,,
acc,1778674615.0,414.0,-0.00648372859640988,0.31329699552263474,-9.81337920450748,,,,,,,,,,
acc,1778674615.0,414.0,-0.006423758352971041,0.3133618797200493,-9.813262679366126,,,,,,,,,,
acc,1778674615.0,414.0,-0.0063643618106451316,0.3134261432073561,-9.813147268954333,,,,,,,,,,
acc,1778674615.0,414.0,-0.006305532964685523,0.31348979248132997,-9.813032961604586,,,,,,,,,,
acc,1778674615.0,414.0,-0.0058863085178612,0.3135528339558435,-9.813244618519196,,,,,,,,,,
acc,1778674615.0,414.0,-0.005471083814011796,0.31325442595996794,-9.813490339007066,,,,,,,,,,
acc,1778674615.0,414.0,-0.005059817275279101,0.3129588625639172,-9.813733717143302,,,,,,,,,,
acc,1778674615.0,414.0,-0.004652467847195544,0.3126661142632295,-9.81357807104324,,,,,,,,,,
acc,1778674615.0,414.0,-0.004248994989803074,0.3123761519232037,-9.813423906160699,,,,,,,,,,
acc,1778674615.0,414.0,-0.004209788946964527,0.31244937705065284,-9.813307248381216,,,,,,,,,,
acc,1778674615.0,414.0,-0.004170955406143959,0.3125219064560712,-9.81319169898338,,,,,,,,,,
acc,1778674615.0,414.0,-0.004132490536590639,0.31259374729415207,-9.813401467109918,,,,,,,,,,
acc,1778674615.0,414.0,-0.004094390554736174,0.3123047699347161,-9.813249099405398,,,,,,,,,,
acc,1778674615.0,414.0,-0.004056651723416593,0.31237857420441906,-9.8131341783948,,,,,,,,,,
acc,1778674615.0,414.0,-0.004019270351111608,0.31245167940632895,-9.813020345906281,,,,,,,,,,
acc,1778674615.0,414.0,-0.0039822427912006055,0.31216423368792334,-9.812871606779375,,,,,,,,,,
acc,1778674615.0,414.0,-0.0039455654412349096,0.31223927644451444,-9.813084053438445,,,,,,,,,,
acc,1778674615.0,414.0,-0.0039092347422258885,0.3119539277177523,-9.813330458568078,,,,,,,,,,
acc,1778674615.0,414.0,-0.004196885663013215,0.31203087031223087,-9.813538578674462,,,,,,,,,,
acc,1778674615.0,414.0,-0.004481821654822968,0.3121070867012143,-9.813421162740235,,,,,,,,,,
acc,1778674615.0,414.0,-0.004764070155668547,0.31218258422398704,-9.81330485426267,,,,,,,,,,
acc,1778674615.0,414.0,-0.005043658277744622,0.3122573701326816,-9.813189642069421,,,,,,,,,,
acc,1778674615.0,414.0,-0.0053206128125326295,0.31233145159364434,-9.8130755151203,,,,,,,,,,
acc,1778674615.0,414.0,-0.005594960235798362,0.31240483568877186,-9.813285744127109,,,,,,,,,,
acc,1778674615.0,414.0,-0.005543523525770216,0.3121184168078932,-9.813529904808975,,,,,,,,,,
acc,1778674615.0,414.0,-0.0054925704121929035,0.31219372785745436,-9.813735868076563,,,,,,,,,,
acc,1778674615.0,414.0,-0.005765164542828377,0.31226833127882914,-9.813616818423508,,,,,,,,,,
acc,1778674615.0,414.0,-0.006035198885139356,0.3123422341386527,-9.81382189886756,,,,,,,,,,
acc,1778674615.0,414.0,-0.006302698961239424,0.312415443421804,-9.813702106784035,,,,,,,,,,
acc,1778674615.0,414.0,-0.0065676899990160815,0.3124879660326383,-9.813906323016045,,,,,,,,,,
acc,1778674615.0,414.0,-0.006830196936542826,0.31255980879619466,-9.814108624867867,,,,,,,,,,
acc,1778674615.0,414.0,-0.007090244426401656,0.3126309784593791,-9.814309031338095,,,,,,,,,,
acc,1778674615.0,414.0,-0.007347856839918275,0.3127014816921235,-9.814507561208572,,,,,,,,,,
acc,1778674615.0,414.0,-0.0076030582713121995,0.31241284454360607,-9.814740079266638,,,,,,,,,,
acc,1778674615.0,414.0,-0.007533295788271698,0.31248532389058675,-9.814934582522156,,,,,,,,,,
acc,1778674615.0,414.0,-0.0074641855279856525,0.31219877183888606,-9.814768904380232,,,,,,,,,,
acc,1778674615.0,414.0,-0.007395721064560059,0.31227318957818495,-9.81496307570239,,,,,,,,,,
acc,1778674615.0,414.0,-0.0073278960442091,0.31198868067822455,-9.815191254832202,,,,,,,,,,
acc,1778674615.0,414.0,-0.007260704184218855,0.3120649998977043,-9.81538148848019,,,,,,,,,,
acc,1778674615.0,414.0,-0.007194139271931185,0.312462920455606,-9.815247633662478,,,,,,,,,,
acc,1778674615.0,414.0,-0.007128195163747317,0.31253486798554037,-9.815115027214475,,,,,,,,,,
acc,1778674615.0,414.0,-0.006704865453466123,0.3126061448232075,-9.814983656918974,,,,,,,,,,
acc,1778674615.0,414.0,-0.006643425334594473,0.31267675752399254,-9.814853510693752,,,,,,,,,,
acc,1778674615.0,414.0,-0.006224666507862171,0.312746712571072,-9.815046689423399,,,,,,,,,,
acc,1778674615.0,414.0,-0.006167643813077687,0.3128160163764199,-9.81523806976886,,,,,,,,,,
acc,1778674615.0,414.0,-0.005753366249163036,0.31288467528179525,-9.815427669242709,,,,,,,,,,
acc,1778674615.0,414.0,-0.005342942067805823,0.31295269555971056,-9.815293533392962,,,,,,,,,,
acc,1778674615.0,414.0,-0.005294017688265793,0.31302008341438275,-9.815482571137872,,,,,,,,,,
acc,1778674615.0,414.0,-0.00524554800005158,0.3130868449826662,-9.815347970044474,,,,,,,,,,
acc,1778674615.0,414.0,-0.005197528595975593,0.3134748246231858,-9.815214619397274,,,,,,,,,,
acc,1778674615.0,414.0,-0.004792416870453202,0.3135374059475349,-9.815082507089596,,,,,,,,,,
acc,1778674615.0,414.0,-0.004748557156621043,0.3132419148783058,-9.814915873828731,,,,,,,,,,
acc,1778674615.0,414.0,-0.004347658883388581,0.3133066112688758,-9.814786529513615,,,,,,,,,,
acc,1778674615.0,414.0,-0.0039504792269579115,0.3133707075543791,-9.814658384959074,,,,,,,,,,
acc,1778674615.0,414.0,-0.0035569823380411274,0.31343420952012263,-9.81453142859883,,,,,,,,,,
acc,1778674615.0,414.0,-0.003167132749398283,0.31313981016673836,-9.814369919547028,,,,,,,,,,
acc,1778674615.0,414.0,-0.0031381654234999543,0.313205408667573,-9.814567186180579,,,,,,,,,,
acc,1778674615.0,414.0,-0.003109466405073902,0.3132703995676921,-9.814441109330627,,,,,,,,,,
acc,1778674615.0,414.0,-0.003081033117846457,0.31333478870124437,-9.814316199856924,,,,,,,,,,
acc,1778674615.0,414.0,-0.0030528630127295477,0.3133985818408151,-9.814192446561142,,,,,,,,,,
acc,1778674615.0,414.0,-0.0033463516955424145,0.31310467769859673,-9.814034129491288,,,,,,,,,,
acc,1778674615.0,414.0,-0.0033157624948981514,0.3128134921878572,-9.814270059058597,,,,,,,,,,
acc,1778674615.0,414.0,-0.003285456156003606,0.31252499930200894,-9.814111066803955,,,,,,,,,,
acc,1778674615.0,414.0,-0.003255429975413081,0.31223917330634177,-9.813953544307854,,,,,,,,,,
acc,1778674615.0,414.0,-0.0032256812778795195,0.3119559887345746,-9.813797477535488,,,,,,,,,,
acc,1778674615.0,414.0,-0.003196207415998434,0.31203233971308036,-9.813999781062984,,,,,,,,,,
acc,1778674615.0,414.0,-0.003488203032144338,0.3121079855265068,-9.813879009749746,,,,,,,,,,
acc,1778674615.0,414.0,-0.003777502610989053,0.31250410791033395,-9.813759353535323,,,,,,,,,,
acc,1778674615.0,414.0,-0.004064131810238549,0.3125754296766296,-9.813961946017614,,,,,,,,,,
acc,1778674615.0,414.0,-0.004348116022846989,0.31264609329253595,-9.814162668995992,,,,,,,,,,
acc,1778674615.0,414.0,-0.004629480380289684,0.312359356896683,-9.814397213218555,,,,,,,,,,
acc,1778674615.0,414.0,-0.00490824975578228,0.3120752650282977,-9.814237199679605,,,,,,,,,,
acc,1778674615.0,414.0,-0.005184448767447321,0.31215047650816524,-9.814114328093378,,,,,,,,,,
acc,1778674615.0,414.0,-0.005458101781429356,0.3122249946899202,-9.813992589135296,,,,,,,,,,
acc,1778674615.0,414.0,-0.005408271274501519,0.31229882614090204,-9.814192942846516,,,,,,,,,,
acc,1778674615.0,414.0,-0.005679834415929771,0.3123719773614899,-9.814070506966935,,,,,,,,,,
acc,1778674615.0,414.0,-0.005948896188244781,0.3127653718571052,-9.814270115915894,,,,,,,,,,
acc,1778674615.0,414.0,-0.006215480234938942,0.3128342527253417,-9.814146995762306,,,,,,,,,,
acc,1778674615.0,414.0,-0.006479609959781237,0.3129024994377757,-9.813632846498557,,,,,,,,,,
acc,1778674615.0,414.0,-0.006741308529676594,0.3129701179803486,-9.813515561517969,,,,,,,,,,
acc,1778674615.0,414.0,-0.006679792597499798,0.31268066488415386,-9.81375581434557,,,,,,,,,,
acc,1778674615.0,414.0,-0.006618842623598887,0.31239387481149583,-9.813993856801462,,,,,,,,,,
acc,1778674615.0,414.0,-0.006558453276309436,0.3124661186219447,-9.814194071938752,,,,,,,,,,
acc,1778674615.0,414.0,-0.006498619277552949,0.31253769806862824,-9.814392445870801,,,,,,,,,,
acc,1778674615.0,414.0,-0.00643933540220945,0.3126086194023605,-9.81426827499299,,,,,,,,,,
acc,1778674615.0,414.0,-0.00638059647749965,0.31267888881134026,-9.814145245521644,,,,,,,,,,
acc,1778674615.0,414.0,-0.00632239738237649,0.312748512421879,-9.81434402295497,,,,,,,,,,
acc,1778674615.0,414.0,-0.006264733046925876,0.31281749629911787,-9.814220319451678,,,,,,,,,,
acc,1778674615.0,414.0,-0.006528222461136292,0.3128858464477337,-9.814097752365386,,,,,,,,,,
acc,1778674615.0,414.0,-0.006468688725325884,0.31295356881263475,-9.813976311035546,,,,,,,,,,
acc,1778674615.0,414.0,-0.006053500976876868,0.31302066927964567,-9.813855984907558,,,,,,,,,,
acc,1778674615.0,414.0,-0.0056421251976172615,0.31308715367618295,-9.813736763531564,,,,,,,,,,
acc,1778674615.0,414.0,-0.00523452568738332,0.31279687155594704,-9.813583022763195,,,,,,,,,,
acc,1778674615.0,414.0,-0.00483066709924462,0.31286538819728626,-9.813466304651374,,,,,,,,,,
acc,1778674615.0,414.0,-0.004430514435507612,0.3129332761099058,-9.813350657579049,,,,,,,,,,
acc,1778674615.0,414.0,-0.004390125496117203,0.31332103531916505,-9.813236071531422,,,,,,,,,,
acc,1778674615.0,414.0,-0.004350107048259524,0.3133847618699897,-9.813122536592369,,,,,,,,,,
acc,1778674615.0,414.0,-0.004310455631118665,0.3134479039503293,-9.812618378617776,,,,,,,,,,
acc,1778674615.0,414.0,-0.0039151357201452,0.31351046701713714,-9.812118843777041,,,,,,,,,,
acc,1778674615.0,414.0,-0.0035234403038762684,0.31357245647381793,-9.81201551019365,,,,,,,,,,
acc,1778674615.0,414.0,-0.003491329238757713,0.31363387767082257,-9.812233529107472,,,,,,,,,,
acc,1778674615.0,414.0,-0.0031035375211593257,0.3133387609368532,-9.812485145423343,,,,,,,,,,
acc,1778674615.0,414.0,-0.003075256206697356,0.31340230531658725,-9.812698862045357,,,,,,,,,,
acc,1778674615.0,414.0,-0.003047234027616332,0.3134652674533328,-9.812590264763683,,,,,,,,,,
acc,1778674615.0,414.0,-0.0030194685711535086,0.3135276527682493,-9.812482662386024,,,,,,,,,,
acc,1778674615.0,414.0,-0.0029919574480449357,0.31358946662969733,-9.812376045653016,,,,,,,,,,
acc,1778674615.0,414.0,-0.0029646982922690622,0.313650714353815,-9.812270405395369,,,,,,,,,,
acc,1778674615.0,414.0,-0.0029376887607938376,0.3137114012050859,-9.812165732532883,,,,,,,,,,
acc,1778674615.0,414.0,-0.0032311962914349603,0.3137715323968999,-9.812062018073489,,,,,,,,,,
acc,1778674615.0,414.0,-0.0032017615578542576,0.3138311130921058,-9.81195925311229,,,,,,,,,,
acc,1778674615.0,414.0,-0.0031725962609671903,0.31389014840355695,-9.811857428830622,,,,,,,,,,
acc,1778674615.0,414.0,-0.003463924842564096,0.31359283770407326,-9.811720957747816,,,,,,,,,,
acc,1778674615.0,414.0,-0.00307658379448056,0.31365403819237736,-9.811621312773234,,,,,,,,,,
acc,1778674615.0,414.0,-0.0033687620500633107,0.3137146786870243,-9.811842788351528,,,,,,,,,,
acc,1778674615.0,414.0,-0.0036582671639381397,0.3137747643811947,-9.812062237647599,,,,,,,,,,
acc,1778674615.0,414.0,-0.0039451239168797215,0.3138343004180449,-9.811959496945034,,,,,,,,,,
acc,1778674615.0,414.0,-0.0042293568511969325,0.31389329189123844,-9.812177865704236,,,,,,,,,,
acc,1778674615.0,414.0,-0.00451099027326098,0.313951743845471,-9.812074080166514,,,,,,,,,,
acc,1778674615.0,414.0,-0.004790048256000694,0.3136539569382074,-9.812326957156232,,,,,,,,,,
acc,1778674615.0,414.0,-0.004746431018505357,0.31335889287830115,-9.812186254672868,,,,,,,,,,
acc,1778674615.0,414.0,-0.004703212555444137,0.3134222041541057,-9.812402525366377,,,,,,,,,,
acc,1778674615.0,414.0,-0.00466038917761691,0.31312927194281726,-9.81226114517621,,,,,,,,,,
acc,1778674615.0,414.0,-0.004617957231123262,0.31283901730746816,-9.812121057285697,,,,,,,,,,
acc,1778674615.0,414.0,-0.00489599046139722,0.31255141549258936,-9.811982249746912,,,,,,,,,,
acc,1778674616.0,415.0,-0.004851416515409946,0.31226644197916187,-9.811844710726044,,,,,,,,,,
acc,1778674616.0,415.0,-0.0051273053488638705,0.31233968765231174,-9.811743988198462,,,,,,,,,,
acc,1778674616.0,415.0,-0.005400673432108093,0.3124122640919749,-9.811964239884691,,,,,,,,,,
acc,1778674616.0,415.0,-0.00567154404266225,0.3121285857568848,-9.811826878541638,,,,,,,,,,
acc,1778674616.0,415.0,-0.005619916132816527,0.3122030791522628,-9.812046361418886,,,,,,,,,,
acc,1778674616.0,415.0,-0.005568759801779299,0.31192132299677705,-9.812299394590148,,,,,,,,,,
acc,1778674616.0,415.0,-0.005838074824734067,0.31164214021387504,-9.81215899551422,,,,,,,,,,
acc,1778674616.0,415.0,-0.005429388601274007,0.31172105438646275,-9.812375435054218,,,,,,,,,,
acc,1778674616.0,415.0,-0.005379971085469624,0.3117992479404353,-9.812269904170428,,,,,,,,,,
acc,1778674616.0,415.0,-0.00533100479455408,0.31187672751926915,-9.812485321474238,,,,,,,,,,
acc,1778674616.0,415.0,-0.005282485569701084,0.31195349970349356,-9.812378796601864,,,,,,,,,,
acc,1778674616.0,415.0,-0.0055543665569409905,0.31202957101133255,-9.812273244227125,,,,,,,,,,
acc,1778674616.0,415.0,-0.005503817271642932,0.31210494789933896,-9.812488612888664,,,,,,,,,,
acc,1778674616.0,415.0,-0.005453729389551765,0.31217963676302124,-9.812382066921566,,,,,,,,,,
acc,1778674616.0,415.0,-0.005404098662230962,0.3122536439374625,-9.812596433643472,,,,,,,,,,
acc,1778674616.0,415.0,-0.00499945318977709,0.3119715080063532,-9.812453367192047,,,,,,,,,,
acc,1778674616.0,415.0,-0.004598500358862826,0.31169194674104383,-9.812702617976345,,,,,,,,,,
acc,1778674616.0,415.0,-0.004201206192618051,0.3114149364514241,-9.812949594365833,,,,,,,,,,
acc,1778674616.0,415.0,-0.0038075370343360303,0.3114958943791088,-9.812838867475177,,,,,,,,,,
acc,1778674616.0,415.0,-0.003772891582285622,0.31157611368145716,-9.812729150809082,,,,,,,,,,
acc,1778674616.0,415.0,-0.003738562197608721,0.3116556011502546,-9.81262043507836,,,,,,,,,,
acc,1778674616.0,415.0,-0.003704545974628487,0.3117343635134078,-9.812832595648603,,,,,,,,,,
acc,1778674616.0,415.0,-0.003990708116625912,0.3118124074355838,-9.812722943788867,,,,,,,,,,
acc,1778674616.0,415.0,-0.003954399344176605,0.3118897395188418,-9.81222334599701,,,,,,,,,,
acc,1778674616.0,415.0,-0.003918421721931724,0.3116109753177214,-9.812083704816061,,,,,,,,,,
acc,1778674616.0,415.0,-0.0038827722080234045,0.3116901366031674,-9.81198087363526,,,,,,,,,,
acc,1778674616.0,415.0,-0.0038474477891098954,0.31141320041439674,-9.812234364876883,,,,,,,,,,
acc,1778674616.0,415.0,-0.003812445480092363,0.3111387895010503,-9.812094632445099,,,,,,,,,,
acc,1778674616.0,415.0,-0.003777762323834921,0.31122224142050164,-9.811991708355041,,,,,,,,,,
acc,1778674616.0,415.0,-0.0037433953908878412,0.31130493246796004,-9.811889722674286,,,,,,,,,,
acc,1778674616.0,415.0,-0.00370934177921389,0.31138686962608225,-9.812108489492099,,,,,,,,,,
acc,1778674616.0,415.0,-0.0036755986139177577,0.3114680598122183,-9.812005445509346,,,,,,,,,,
acc,1778674616.0,415.0,-0.0036421630469785243,0.3115485098790552,-9.811903340862292,,,,,,,,,,
acc,1778674616.0,415.0,-0.003609032256985129,0.31162822661525325,-9.812121971174605,,,,,,,,,,
acc,1778674616.0,415.0,-0.003220884124719649,0.3113518974219205,-9.81237413881954,,,,,,,,,,
acc,1778674616.0,415.0,-0.0031915865586660064,0.31107808678673177,-9.812979320975161,,,,,,,,,,
acc,1778674616.0,415.0,-0.0031625560061620934,0.3108067716199216,-9.813223681095307,,,,,,,,,,
acc,1778674616.0,415.0,-0.0031337900196567407,0.31089322930502783,-9.813430286066039,,,,,,,,,,
acc,1778674616.0,415.0,-0.003105286174412709,0.3109788991107884,-9.813635008268466,,,,,,,,,,
acc,1778674616.0,415.0,-0.0030770420682838615,0.3110637882569799,-9.813837864955444,,,,,,,,,,
acc,1778674616.0,415.0,-0.0033688111286247634,0.3114676687986134,-9.813719108316679,,,,,,,,,,
acc,1778674616.0,415.0,-0.003657921730233694,0.31154810969336527,-9.81392119341353,,,,,,,,,,
acc,1778674616.0,415.0,-0.003944398223235162,0.31162781768502723,-9.814121437297743,,,,,,,,,,
acc,1778674616.0,415.0,-0.003908524301801658,0.31135153436288837,-9.814355381524777,,,,,,,,,,
acc,1778674616.0,415.0,-0.0038729771995902325,0.31143302767424313,-9.814231925741915,,,,,,,,,,
acc,1778674616.0,415.0,-0.004157484560537864,0.3115137785978494,-9.814429334347313,,,,,,,,,,
acc,1778674616.0,415.0,-0.004119674360944215,0.3115937939298225,-9.81430520971419,,,,,,,,,,
acc,1778674616.0,415.0,-0.004082208573970569,0.3116730804031696,-9.814501946019414,,,,,,,,,,
acc,1778674616.0,415.0,-0.004364800648755924,0.3113964060413377,-9.814341642592662,,,,,,,,,,
acc,1778674616.0,415.0,-0.0046448188173984235,0.3114774853219525,-9.814218320786939,,,,,,,,,,
acc,1778674616.0,415.0,-0.004922286630291334,0.3115578261468789,-9.81409612217432,,,,,,,,,,
acc,1778674616.0,415.0,-0.004877524104625446,0.3116374352719088,-9.813975036479228,,,,,,,,,,
acc,1778674616.0,415.0,-0.005152868280337486,0.3113611002494374,-9.813819533425994,,,,,,,,,,
acc,1778674616.0,415.0,-0.005106010120444527,0.31108728173258826,-9.814056189701589,,,,,,,,,,
acc,1778674616.0,415.0,-0.005059578668081933,0.3108159567072326,-9.813899952723528,,,,,,,,,,
acc,1778674616.0,415.0,-0.005013570021341458,0.31054710237233146,-9.814135871677351,,,,,,,,,,
acc,1778674616.0,415.0,-0.004967980314430891,0.3102806961378921,-9.813978914044878,,,,,,,,,,
acc,1778674616.0,415.0,-0.004922805717328029,0.3103719123025518,-9.814178591337859,,,,,,,,,,
acc,1778674616.0,415.0,-0.004878042435438277,0.31046229794300956,-9.814056766469657,,,,,,,,,,
acc,1778674616.0,415.0,-0.004833686709255833,0.3105518606504277,-9.813936050778848,,,,,,,,,,
acc,1778674616.0,415.0,-0.005109402372469199,0.3106406079457947,-9.814136110779657,,,,,,,,,,
acc,1778674616.0,415.0,-0.00538260790416092,0.3107285472805947,-9.81433434942252,,,,,,,,,,
acc,1778674616.0,415.0,-0.005653326240358158,0.310815686037471,-9.81421111387738,,,,,,,,,,
acc,1778674616.0,415.0,-0.005601923217505011,0.31054685923172193,-9.814053484789666,,,,,,,,,,
acc,1778674616.0,415.0,-0.005550988124415355,0.31063564808775473,-9.813932805654654,,,,,,,,,,
acc,1778674616.0,415.0,-0.00550051668668861,0.31036846396228385,-9.814168398886437,,,,,,,,,,
acc,1778674616.0,415.0,-0.005450504669368198,0.3101037119022547,-9.814011163154978,,,,,,,,,,
acc,1778674616.0,415.0,-0.00540094787656682,0.3101965271641074,-9.814210525191383,,,,,,,,,,
acc,1778674616.0,415.0,-0.005351842151095579,0.31028849761882077,-9.814408072628892,,,,,,,,,,
acc,1778674616.0,415.0,-0.005303183374096903,0.3103796309806318,-9.814603822037258,,,,,,,,,,
acc,1778674616.0,415.0,-0.005574601614934651,0.310469934892667,-9.81447814659136,,,,,,,,,,
acc,1778674616.0,415.0,-0.005843549614694718,0.31055941692761574,-9.814353614947176,,,,,,,,,,
acc,1778674616.0,415.0,-0.005790421753988533,0.31064808458839716,-9.814230216662935,,,,,,,,,,
acc,1778674616.0,415.0,-0.005737777395549103,0.3103808081501242,-9.814072429495504,,,,,,,,,,
acc,1778674616.0,415.0,-0.005685612126207551,0.310115964056579,-9.814306732924173,,,,,,,,,,
acc,1778674616.0,415.0,-0.0056339215734257896,0.3098535301083001,-9.814148252906403,,,,,,,,,,
acc,1778674616.0,415.0,-0.005582701404913031,0.3099486121188068,-9.814026726020114,,,,,,,,,,
acc,1778674616.0,415.0,-0.005531947328246162,0.310042828904714,-9.813906305000758,,,,,,,,,,
acc,1778674616.0,415.0,-0.005801266577282525,0.310136188360905,-9.813786979757674,,,,,,,,,,
acc,1778674616.0,415.0,-0.005748526324935485,0.31022869830964334,-9.813668740293016,,,,,,,,,,
acc,1778674616.0,415.0,-0.005696265961333417,0.3103203665012565,-9.81355157670088,,,,,,,,,,
acc,1778674616.0,415.0,-0.005644481108612106,0.31041120061481264,-9.81343547916644,,,,,,,,,,
acc,1778674616.0,415.0,-0.00559316742915053,0.3105012082587907,-9.813320437965096,,,,,,,,,,
acc,1778674616.0,415.0,-0.005542320625192692,0.3105903969717437,-9.81352605146717,,,,,,,,,,
acc,1778674616.0,415.0,-0.005811532973588462,0.3106787742229553,-9.813410188619041,,,,,,,,,,
acc,1778674616.0,415.0,-0.006433407748996707,0.3107663474130903,-9.813259871451109,,,,,,,,,,
acc,1778674616.0,415.0,-0.006694515609886162,0.3104980237789645,-9.813501539225324,,,,,,,,,,
acc,1778674616.0,415.0,-0.006953247999357837,0.3105872388558411,-9.813385901703963,,,,,,,,,,
acc,1778674616.0,415.0,-0.0075647308037195505,0.310675642300972,-9.812916221056577,,,,,,,,,,
acc,1778674616.0,415.0,-0.008525743496231091,0.31076324151468576,-9.812415296683735,,,,,,,,,,
acc,1778674616.0,415.0,-0.009478013757951258,0.3108500438293895,-9.811918929271165,,,,,,,,,,
acc,1778674616.0,415.0,-0.010776718407641578,0.3109360565102044,-9.811427077274246,,,,,,,,,,
acc,1778674616.0,415.0,-0.01170851424058097,0.3106662010141909,-9.811294794361238,,,,,,,,,,
acc,1778674616.0,415.0,-0.012276750428167197,0.3100437167796766,-9.810808622180682,,,,,,,,,,
acc,1778674616.0,415.0,-0.012839817711808133,0.30978197620672154,-9.810326872416995,,,,,,,,,,
acc,1778674616.0,415.0,-0.013042674981209142,0.30952261648698254,-9.810204592984448,,,,,,,,,,
acc,1778674616.0,415.0,-0.013598773146467975,0.309265615920985,-9.80972833971453,,,,,,,,,,
acc,1778674616.0,415.0,-0.014149813094652349,0.30936602793239554,-9.80929193316441,,,,,,,,,,
acc,1778674616.0,415.0,-0.014695840922258563,0.30946552662144106,-9.809179063465475,,,,,,,,,,
acc,1778674616.0,415.0,-0.014562256749162152,0.30956412031097214,-9.808712140426929,,,,,,,,,,
acc,1778674616.0,415.0,-0.014429887582814209,0.30966181724757685,-9.808000919669793,,,,,,,,,,
acc,1778674616.0,415.0,-0.01429872235231291,0.309758625602291,-9.807935291824652,,,,,,,,,,
acc,1778674616.0,415.0,-0.014168750088169252,0.3098545534713012,-9.80747968204608,,,,,,,,,,
acc,1778674616.0,415.0,-0.013684896739046448,0.3099496088766412,-9.807418792809365,,,,,,,,,,
acc,1778674616.0,415.0,-0.013205443965828473,0.3100437997668815,-9.807358457351409,,,,,,,,,,
acc,1778674616.0,415.0,-0.012375283043642552,0.3101371340178122,-9.807298670627253,,,,,,,,,,
acc,1778674616.0,415.0,-0.011552672084703054,0.3105491823395632,-9.807239427638121,,,,,,,,,,
acc,1778674616.0,415.0,-0.011092607443596188,0.3109574833111856,-9.80679015451591,,,,,,,,,,
acc,1778674616.0,415.0,-0.010636726773505205,0.31136207106671104,-9.806735534262119,,,,,,,,,,
acc,1778674616.0,415.0,-0.00982993021640897,0.3117629794277918,-9.80629084553829,,,,,,,,,,
acc,1778674616.0,415.0,-0.009030470710747147,0.3118406850861754,-9.805850200837718,,,,,,,,,,
acc,1778674616.0,415.0,-0.007883222943707116,0.3119176840948312,-9.806123680307161,,,,,,,,,,
acc,1778674616.0,415.0,-0.006746408025262886,0.31199398288944225,-9.80607511886725,,,,,,,,,,
acc,1778674616.0,415.0,-0.0056199309439630505,0.31206958784682415,-9.806346551568739,,,,,,,,,,
acc,1778674616.0,415.0,-0.004148652828424582,0.3121445052854707,-9.806615515978805,,,,,,,,,,
acc,1778674616.0,415.0,-0.0026907537076717577,0.3122187414660938,-9.806882034574311,,,,,,,,,,
acc,1778674616.0,415.0,-0.0012461117539648288,0.3122923025921583,-9.807146129626588,,,,,,,,,,
acc,1778674616.0,415.0,-0.00016964656037505872,0.3123651948104121,-9.80776286351031,,,,,,,,,,
acc,1778674616.0,415.0,0.0008970302124189748,0.31275697011574866,-9.808018950476475,,,,,,,,,,
acc,1778674616.0,415.0,0.0015989611071446988,0.31282563835733157,-9.808627746333093,,,,,,,,,,
acc,1778674616.0,415.0,0.002649554624399351,0.3132132256210103,-9.809231006470005,,,,,,,,,,
acc,1778674616.0,415.0,0.0033355514450625788,0.31327774642814643,-9.809828781285844,,,,,,,,,,
acc,1778674616.0,415.0,0.004015310707125918,0.31334168056738076,-9.810776154173393,,,,,,,,,,
acc,1778674616.0,415.0,0.004688889195118772,0.3134050333795306,-9.811359880827462,,,,,,,,,,
acc,1778674616.0,415.0,0.005001303201641706,0.3134678101566186,-9.812293330834684,,,,,,,,,,
acc,1778674616.0,415.0,0.004955846982193162,0.31353001614232373,-9.812863263910033,,,,,,,,,,
acc,1778674616.0,415.0,0.004591276681286074,0.3135916565324269,-9.813428014981799,,,,,,,,,,
acc,1778674616.0,415.0,0.003874984840393539,0.31365273647525316,-9.81402313212136,,,,,,,,,,
acc,1778674616.0,415.0,0.003165205608528639,0.3137132610721096,-9.814257812369863,,,,,,,,,,
acc,1778674617.0,416.0,0.0021068548541631343,0.3137732353777188,-9.814809883085815,,,,,,,,,,
acc,1778674617.0,416.0,0.0014131502722954936,0.3134776406877963,-9.815356934408939,,,,,,,,,,
acc,1778674617.0,416.0,0.00037073015719496765,0.31353975609301926,-9.815899012022756,,,,,,,,,,
acc,1778674617.0,416.0,-0.0006622125180797858,0.3132462852677484,-9.816471661525163,,,,,,,,,,
acc,1778674617.0,416.0,-0.0016857640066898735,0.31331050299725866,-9.816648584045545,,,,,,,,,,
acc,1778674617.0,416.0,-0.002700009774479363,0.3133741368848526,-9.8165043697355,,,,,,,,,,
acc,1778674617.0,416.0,-0.004060061904385849,0.3134371922437249,-9.816680993936666,,,,,,,,,,
acc,1778674617.0,416.0,-0.005407749201825047,0.3138192008019614,-9.816856012369488,,,,,,,,,,
acc,1778674617.0,416.0,-0.006743184185833596,0.31387821082260714,-9.816709914086934,,,,,,,,,,
acc,1778674617.0,416.0,-0.008066478348699927,0.3139366843662885,-9.816565144025624,,,,,,,,,,
acc,1778674617.0,416.0,-0.009022718750217509,0.31399462631465935,-9.816421690099457,,,,,,,,,,
acc,1778674617.0,416.0,-0.009615252463293292,0.3136970281289719,-9.816279540332598,,,,,,,,,,
acc,1778674617.0,416.0,-0.0105574118562488,0.3134021354276543,-9.816103183431936,,,,,,,,,,
acc,1778674617.0,416.0,-0.011491006084114538,0.3131099235940216,-9.815608917600137,,,,,,,,,,
acc,1778674617.0,416.0,-0.012416113077882096,0.3131753788612488,-9.81508363676817,,,,,,,,,,
acc,1778674617.0,416.0,-0.012977800316282326,0.31324023908410514,-9.814598639433138,,,,,,,,,,
acc,1778674617.0,416.0,-0.013534381374986517,0.31330450967641554,-9.814118051106135,,,,,,,,,,
acc,1778674617.0,416.0,-0.014085902709951467,0.31336819600263105,-9.813641831674065,,,,,,,,,,
acc,1778674617.0,416.0,-0.014277394080560113,0.3134313033782824,-9.813524948574262,,,,,,,,,,
acc,1778674617.0,416.0,-0.01414763713657946,0.31349383707042916,-9.813409128011216,,,,,,,,,,
acc,1778674617.0,416.0,-0.014019059752129125,0.3132007967418474,-9.813258861580621,,,,,,,,,,
acc,1778674617.0,416.0,-0.013891651196492848,0.3129104202874858,-9.813109961142457,,,,,,,,,,
acc,1778674617.0,416.0,-0.013410396850503612,0.31262268347397204,-9.812642908864936,,,,,,,,,,
acc,1778674617.0,416.0,-0.013288520497592063,0.31269256551139585,-9.812535105478716,,,,,,,,,,
acc,1778674617.0,416.0,-0.012812749563716462,0.3127618123006883,-9.812428282056764,,,,,,,,,,
acc,1778674617.0,416.0,-0.01234130349944133,0.3128304296203923,-9.812322429684823,,,,,,,,,,
acc,1778674617.0,416.0,-0.011874142964267507,0.31289842319637945,-9.811827031144835,,,,,,,,,,
acc,1778674617.0,416.0,-0.011056219584876535,0.31261079839906936,-9.81169114523037,,,,,,,,,,
acc,1778674617.0,416.0,-0.010245731186197926,0.31232578813127915,-9.81155649452837,,,,,,,,,,
acc,1778674617.0,416.0,-0.009442610140741083,0.31239836753329553,-9.811458565878072,,,,,,,,,,
acc,1778674617.0,416.0,-0.008291782099681342,0.3124702871911034,-9.811681036726041,,,,,,,,,,
acc,1778674617.0,416.0,-0.0075064216637882545,0.31254155310543286,-9.811581976596903,,,,,,,,,,
acc,1778674617.0,416.0,-0.006728200046990523,0.31261217122233476,-9.81148381691081,,,,,,,,,,
acc,1778674617.0,416.0,-0.005957052320020921,0.31300165501409183,-9.811386549478016,,,,,,,,,,
acc,1778674617.0,416.0,-0.005192914145196076,0.3133875984894447,-9.811290166183394,,,,,,,,,,
acc,1778674617.0,416.0,-0.00443572177099844,0.3134505273814299,-9.811514165451714,,,,,,,,,,
acc,1778674617.0,416.0,-0.00368541202670863,0.3135128842704621,-9.811416622716466,,,,,,,,,,
acc,1778674617.0,416.0,-0.0029419223170876643,0.3135746743587186,-9.811639471999637,,,,,,,,,,
acc,1778674617.0,416.0,-0.0022051906171085965,0.3136359028009876,-9.811860295676286,,,,,,,,,,
acc,1778674617.0,416.0,-0.0018301572768894988,0.31369657470510154,-9.812079112168087,,,,,,,,,,
acc,1778674617.0,416.0,-0.0014585327995940436,0.31375669513236726,-9.812295939728916,,,,,,,,,,
acc,1778674617.0,416.0,-0.0010902861845509333,0.31381626909799154,-9.812191293089677,,,,,,,,,,
acc,1778674617.0,416.0,-0.0010803777860534612,0.313875301571503,-9.812407100497314,,,,,,,,,,
acc,1778674617.0,416.0,-0.0013900527544730662,0.31393379747717,-9.81262094635212,,,,,,,,,,
acc,1778674617.0,416.0,-0.0013774201484130825,0.31399176169441456,-9.812513346566746,,,,,,,,,,
acc,1778674617.0,416.0,-0.0016843947411502532,0.31369420954729055,-9.812371227653236,,,,,,,,,,
acc,1778674617.0,416.0,-0.0019885791654921823,0.3133993619256109,-9.812230400493865,,,,,,,,,,
acc,1778674617.0,416.0,-0.0022899987935900497,0.31310719423601113,-9.812481347980409,,,,,,,,,,
acc,1778674617.0,416.0,-0.0029436758868661766,0.31281768210906846,-9.812694517576164,,,,,,,,,,
acc,1778674617.0,416.0,-0.0035914116200662103,0.31253080139725453,-9.812905749644447,,,,,,,,,,
acc,1778674617.0,416.0,-0.004233260018439378,0.31224652817290693,-9.81279556251618,,,,,,,,,,
acc,1778674617.0,416.0,-0.005224261248208173,0.31196483872621955,-9.812650880040094,,,,,,,,,,
acc,1778674617.0,416.0,-0.006206255238464924,0.31204069574634846,-9.812543009388072,,,,,,,,,,
acc,1778674617.0,416.0,-0.007179323889887661,0.3117608775609024,-9.812400622415312,,,,,,,,,,
acc,1778674617.0,416.0,-0.008143548357543164,0.311483602632245,-9.812259529592303,,,,,,,,,,
acc,1778674617.0,416.0,-0.008744024175657322,0.3112088478356623,-9.812474713121683,,,,,,,,,,
acc,1778674617.0,416.0,-0.009339042331293472,0.3109365902569503,-9.812368443947443,,,,,,,,,,
acc,1778674617.0,416.0,-0.009928652447512062,0.3106668071904922,-9.812263140639335,,,,,,,,,,
acc,1778674617.0,416.0,-0.01051290369567114,0.3103994761373529,-9.812158794415438,,,,,,,,,,
acc,1778674617.0,416.0,-0.011091844799551873,0.31048955805792566,-9.811700413319242,,,,,,,,,,
acc,1778674617.0,416.0,-0.011665524039446,0.31057882124441555,-9.811246198344548,,,,,,,,,,
acc,1778674617.0,416.0,-0.0122339892562056,0.3106672731407505,-9.811115597666383,,,,,,,,,,
acc,1778674617.0,416.0,-0.013152269964834188,0.3110744159269177,-9.811341175177652,,,,,,,,,,
acc,1778674617.0,416.0,-0.013707222967366959,0.3114778583204004,-9.811209711656593,,,,,,,,,,
acc,1778674617.0,416.0,-0.01390214172417905,0.3115581398166867,-9.811114939282945,,,,,,,,,,
acc,1778674617.0,416.0,-0.014095288936554292,0.31163769166416716,-9.811021028260322,,,,,,,,,,
acc,1778674617.0,416.0,-0.01428668071061858,0.3117165204964974,-9.811247464272439,,,,,,,,,,
acc,1778674617.0,416.0,-0.014156848886612464,0.3117946328869645,-9.811471842303567,,,,,,,,,,
acc,1778674617.0,416.0,-0.014028197045675338,0.31187203534903823,-9.811694181063661,,,,,,,,,,
acc,1778674617.0,416.0,-0.013900714460183705,0.31194873433691667,-9.811914499092424,,,,,,,,,,
acc,1778674617.0,416.0,-0.013774390500131326,0.31202473624606725,-9.811813322444372,,,,,,,,,,
acc,1778674617.0,416.0,-0.01364921463223854,0.31210004741376246,-9.811713065337763,,,,,,,,,,
acc,1778674617.0,416.0,-0.013170197703198893,0.312174674119611,-9.811613719412941,,,,,,,,,,
acc,1778674617.0,416.0,-0.012695534284599169,0.31189364417673726,-9.811479780362893,,,,,,,,,,
acc,1778674617.0,416.0,-0.012225184798804457,0.311615168347457,-9.811347058605012,,,,,,,,,,
acc,1778674617.0,416.0,-0.011404123127895564,0.311339223412576,-9.811215543073017,,,,,,,,,,
acc,1778674617.0,416.0,-0.010590523559702197,0.31106578636415577,-9.811475705346254,,,,,,,,,,
acc,1778674617.0,416.0,-0.010139304583238291,0.31079483440358674,-9.81134302094575,,,,,,,,,,
acc,1778674617.0,416.0,-0.009692186426790202,0.3105263449396794,-9.811211542422823,,,,,,,,,,
acc,1778674617.0,416.0,-0.009249131811295365,0.31061527226998414,-9.811116754666093,,,,,,,,,,
acc,1778674617.0,416.0,-0.008810103796838775,0.3107033914044864,-9.811022828366319,,,,,,,,,,
acc,1778674617.0,416.0,-0.00837506577956064,0.3107907096900987,-9.810929755692415,,,,,,,,,,
acc,1778674617.0,416.0,-0.007943981488592407,0.3108772344068976,-9.810837528884539,,,,,,,,,,
acc,1778674617.0,416.0,-0.007871790616168434,0.31096297276873286,-9.810746140253439,,,,,,,,,,
acc,1778674617.0,416.0,-0.0074452804458926035,0.3106929565414344,-9.810620086459068,,,,,,,,,,
acc,1778674617.0,416.0,-0.007022646474007192,0.31078036940461745,-9.810530673959562,,,,,,,,,,
acc,1778674617.0,416.0,-0.0069588283594537404,0.31086698784617917,-9.81044207405468,,,,,,,,,,
acc,1778674617.0,416.0,-0.0065406155755837435,0.3109528190875398,-9.81035427935781,,,,,,,,,,
acc,1778674617.0,416.0,-0.0068006567819252906,0.31103787028443264,-9.80987680341321,,,,,,,,,,
acc,1778674617.0,416.0,-0.0077682921852620344,0.31112214852750275,-9.80940366681797,,,,,,,,,,
acc,1778674617.0,416.0,-0.008372159667343579,0.3115251483211483,-9.809289813185194,,,,,,,,,,
acc,1778674617.0,416.0,-0.00968049574871794,0.31192448562609043,-9.808573533434826,,,,,,,,,,
acc,1778674617.0,416.0,-0.01062195898702781,0.31164573311634414,-9.808857701884861,,,,,,,,,,
acc,1778674617.0,416.0,-0.011554866176671088,0.31172448723876095,-9.807790367375956,,,,,,,,,,
acc,1778674617.0,416.0,-0.01283427728917372,0.31109257941972923,-9.807371697143472,,,,,,,,,,
acc,1778674617.0,416.0,-0.014457034018962497,0.3111763601917589,-9.8066373452658,,,,,,,,,,
acc,1778674617.0,416.0,-0.015710070455179144,0.31090440686058785,-9.80555469446215,,,,,,,,,,
acc,1778674617.0,416.0,-0.017626168915152073,0.310634925033034,-9.80483685526317,,,,,,,,,,
acc,1778674617.0,416.0,-0.019205377060292662,0.3103678922440917,-9.804161044255443,,,,,,,,,,
acc,1778674617.0,416.0,-0.021089710184289324,0.3104582583552263,-9.802745926251012,,,,,,,,,,
acc,1778674617.0,416.0,-0.023311899651948596,0.3101928312909585,-9.80233759378607,,,,,,,,,,
acc,1778674617.0,416.0,-0.025158913220901795,0.31028478815533456,-9.800584066833745,,,,,,,,,,
acc,1778674617.0,416.0,-0.02666966508967477,0.31002093775461514,-9.799201456411819,,,,,,,,,,
acc,1778674617.0,416.0,-0.02848616349320903,0.30975948519555185,-9.798541353778745,,,,,,,,,,
acc,1778674617.0,416.0,-0.029611706661581617,0.30950040868331263,-9.797212802938356,,,,,,,,,,
acc,1778674617.0,416.0,-0.031081992103450046,0.3092436866212617,-9.796606276961633,,,,,,,,,,
acc,1778674617.0,416.0,-0.032183944940612184,0.3093442684897453,-9.795259816878978,,,,,,,,,,
acc,1778674617.0,416.0,-0.0332758834168285,0.3094439362872254,-9.793570613394557,,,,,,,,,,
acc,1778674617.0,416.0,-0.035032344424756966,0.3095426983218745,-9.792251740725828,,,,,,,,,,
acc,1778674617.0,416.0,-0.03712782253841059,0.3096405628263165,-9.790625369455503,,,,,,,,,,
acc,1778674617.0,416.0,-0.040269177183857134,0.30973753795831505,-9.790327182736837,,,,,,,,,,
acc,1778674617.0,416.0,-0.04441141712478138,0.3098336318014547,-9.78978323044878,,,,,,,,,,
acc,1778674617.0,416.0,-0.04851601334041988,0.31024833621271325,-9.789244221474195,,,,,,,,,,
acc,1778674617.0,416.0,-0.053967710140539346,0.3099848183883043,-9.787964667058592,,,,,,,,,,
acc,1778674617.0,416.0,-0.06078976004241427,0.3097236953473871,-9.78708720570044,,,,,,,,,,
acc,1778674617.0,416.0,-0.06996362736524678,0.30910997582329003,-9.787176150671371,,,,,,,,,,
acc,1778674617.0,416.0,-0.08114847340563039,0.30850183361393896,-9.786660833969032,,,,,,,,,,
acc,1778674617.0,416.0,-0.09397105302597596,0.30789921802775666,-9.787463600984893,,,,,,,,,,
acc,1778674617.0,416.0,-0.10912642062100338,0.30765704792281756,-9.78754912542635,,,,,,,,,,
acc,1778674617.0,416.0,-0.12588342874459585,0.30706210962939656,-9.787669367725993,,,,,,,,,,
acc,1778674617.0,416.0,-0.14387255288257542,0.306117600033643,-9.788498464041778,,,,,,,,,,
acc,1778674617.0,416.0,-0.16414751081759585,0.3048266960474824,-9.788219606476547,,,,,,,,,,
acc,1778674618.0,417.0,-0.18629705626778945,0.3039025010248619,-9.789008206970662,,,,,,,,,,
acc,1778674618.0,417.0,-0.20998468877225093,0.30298670476797773,-9.789789640935368,,,,,,,,,,
acc,1778674618.0,417.0,-0.23523191628416298,0.30172425352614013,-9.790209005175207,,,,,,,,,,
acc,1778674618.0,417.0,-0.2616341021806615,0.3008282522809235,-9.792079944407881,,,,,,,,,,
acc,1778674618.0,417.0,-0.2895357184983036,0.2999403935613996,-9.792478495696296,,,,,,,,,,
acc,1778674618.0,417.0,-0.31995256579351494,0.2987056262958851,-9.793583361063083,,,,,,,,,,
acc,1778674618.0,417.0,-0.3521873361409196,0.29748208011382554,-9.794713689900854,,,,,,,,,,
acc,1778674618.0,417.0,-0.38551355489955746,0.29626965303193337,-9.79618871451826,,,,,,,,,,
acc,1778674618.0,417.0,-0.41889189527770304,0.2950682439940829,-9.796940390325865,,,,,,,,,,
acc,1778674618.0,417.0,-0.45303181887028754,0.2935582802565853,-9.799460100193329,,,,,,,,,,
acc,1778674618.0,417.0,-0.48753594232305697,0.2920620384305443,-9.80121147311259,,,,,,,,,,
acc,1778674618.0,417.0,-0.5227914273608795,0.290579393805149,-9.801882010126468,,,,,,,,,,
acc,1778674618.0,417.0,-0.5594658854718174,0.28875525556771403,-9.804356811940334,,,,,,,,,,
acc,1778674618.0,417.0,-0.5964815018631235,0.287302661420748,-9.80535373315527,,,,,,,,,,
acc,1778674618.0,417.0,-0.6352550717556152,0.2858632677897568,-9.807406514096765,,,,,,,,,,
acc,1778674618.0,417.0,-0.6733213183941026,0.2840819877593251,-9.809795607256897,,,,,,,,,,
acc,1778674618.0,417.0,-0.711751579615548,0.2826718620177856,-9.811098079818178,,,,,,,,,,
acc,1778674618.0,417.0,-0.7501875716696027,0.2809195840688835,-9.813134153592491,,,,,,,,,,
acc,1778674618.0,417.0,-0.7889487235624002,0.2802126442203458,-9.815826172087052,,,,,,,,,,
acc,1778674618.0,417.0,-0.8280675753367073,0.27883768128764996,-9.817073842340104,,,,,,,,,,
acc,1778674618.0,417.0,-0.8678603481423777,0.2771202468421305,-9.82008503411381,,,,,,,,,,
acc,1778674618.0,417.0,-0.9076464797428184,0.27541841957685054,-9.822394414611718,,,,,,,,,,
acc,1778674618.0,417.0,-0.9477809969887762,0.2740870239746536,-9.825037774960572,,,,,,,,,,
acc,1778674618.0,417.0,-0.9882252392137475,0.27308719884379573,-9.82730214757266,,,,,,,,,,
acc,1778674618.0,417.0,-1.0290118776081325,0.2720964596015962,-9.829900908909888,,,,,,,,,,
acc,1778674618.0,417.0,-1.0697828437522179,0.27146969884295385,-9.832121087995647,,,,,,,,,,
acc,1778674618.0,417.0,-1.1105382802354875,0.2704936586602735,-9.834321091280373,,,,,,,,,,
acc,1778674618.0,417.0,-1.151952765427325,0.2695264882033726,-9.83745952466673,,,,,,,,,,
acc,1778674618.0,417.0,-1.193700839188276,0.268248635779151,-9.83993048642897,,,,,,,,,,
acc,1778674618.0,417.0,-1.2357439662911958,0.2666274299943759,-9.842378993454416,,,,,,,,,,
acc,1778674618.0,417.0,-1.2784699441858818,0.2653759225296377,-9.844095309314438,,,,,,,,,,
acc,1778674618.0,417.0,-1.321837063693948,0.26481023367045464,-9.84544106262769,,,,,,,,,,
acc,1778674618.0,417.0,-1.366194473165542,0.263575239992453,-9.847874987020166,,,,,,,,,,
acc,1778674618.0,417.0,-1.4108587280294085,0.26199650373230826,-9.84886691314532,,,,,,,,,,
acc,1778674618.0,417.0,-1.456501485168447,0.26043211411325345,-9.850559765164899,,,,,,,,,,
acc,1778674618.0,417.0,-1.5020844329530079,0.2585269663034435,-9.852556704177925,,,,,,,,,,
acc,1778674618.0,417.0,-1.5476081241472779,0.2573490710371668,-9.853115616820423,,,,,,,,,,
acc,1778674618.0,417.0,-1.5927181230802891,0.2558269145493824,-9.85544430382821,,,,,,,,,,
acc,1778674618.0,417.0,-1.6363532756720114,0.2536086510782239,-9.857077384392982,,,,,,,,,,
acc,1778674618.0,417.0,-1.6792724279226992,0.2514105458463516,-9.857985685200523,,,,,,,,,,
acc,1778674618.0,417.0,-1.7221210273903056,0.24887744152085903,-9.860625089744525,,,,,,,,,,
acc,1778674618.0,417.0,-1.763195870683923,0.24672233057222553,-9.862530560842998,,,,,,,,,,
acc,1778674618.0,417.0,-1.8042524160962492,0.24423182992193088,-9.86335381231341,,,,,,,,,,
acc,1778674618.0,417.0,-1.8452908300318296,0.24211893535480003,-9.865269990055557,,,,,,,,,,
acc,1778674618.0,417.0,-1.8852463829243045,0.2400252414502964,-9.865393903418894,,,,,,,,,,
acc,1778674618.0,417.0,-1.926223218427839,0.2379505737158818,-9.866226629350278,,,,,,,,,,
acc,1778674618.0,417.0,-1.9665082124027735,0.23522031539217117,-9.867016293343424,,,,,,,,,,
acc,1778674618.0,417.0,-2.0078115042397613,0.23251486791193596,-9.866769372966287,,,,,,,,,,
acc,1778674618.0,417.0,-2.0487394583132854,0.2298340057991433,-9.867944573034404,,,,,,,,,,
acc,1778674618.0,417.0,-2.0889405119738216,0.2271775056271373,-9.865985365593637,,,,,,,,,,
acc,1778674618.0,417.0,-2.129131218209116,0.2248646158699588,-9.866102778080654,,,,,,,,,,
acc,1778674618.0,417.0,-2.1689566976136545,0.2225727441409522,-9.864834742239676,,,,,,,,,,
acc,1778674618.0,417.0,-2.207710331382411,0.21998222965154626,-9.863258759691766,,,,,,,,,,
acc,1778674618.0,417.0,-2.2468217355848052,0.21706029168554108,-9.861661604011635,,,,,,,,,,
acc,1778674618.0,417.0,-2.2841933405767727,0.21451987065739012,-9.860114456832815,,,,,,,,,,
acc,1778674618.0,417.0,-2.321544807087141,0.21232200493114825,-9.857516467210994,,,,,,,,,,
acc,1778674618.0,417.0,-2.3578824056739083,0.20982464231506553,-9.855652023897619,,,,,,,,,,
acc,1778674618.0,417.0,-2.3931798643825792,0.20699500986657773,-9.852349153908616,,,,,,,,,,
acc,1778674618.0,417.0,-2.427446617332505,0.2045460553269727,-9.849431262289706,,,,,,,,,,
acc,1778674618.0,417.0,-2.4610825079310312,0.20176439112486938,-9.846575381068991,,,,,,,,,,
acc,1778674618.0,417.0,-2.4944127386314223,0.19900800477869707,-9.84339048809023,,,,,,,,,,
acc,1778674618.0,417.0,-2.5274400871674123,0.1959216934784726,-9.841618916839693,,,,,,,,,,
acc,1778674618.0,417.0,-2.560167306026759,0.1935733654572805,-9.83812409189071,,,,,,,,,,
acc,1778674618.0,417.0,-2.59291659203173,0.19192081977231015,-9.83537096241989,,,,,,,,,,
acc,1778674618.0,417.0,-2.6257232483737294,0.19028329126829782,-9.832287887579586,,,,,,,,,,
acc,1778674618.0,417.0,-2.6582317808340683,0.1879862012571211,-9.82955229884239,,,,,,,,,,
acc,1778674618.0,417.0,-2.690799871546667,0.18570998558206056,-9.827232036671168,,,,,,,,,,
acc,1778674618.0,417.0,-2.722362060759145,0.18274451790911558,-9.825642796037933,,,,,,,,,,
acc,1778674618.0,417.0,-2.753317966023037,0.18051593486474857,-9.823713024469718,,,,,,,,,,
acc,1778674618.0,417.0,-2.7839925660836253,0.1779526398919024,-9.821090852797349,,,,,,,,,,
acc,1778674618.0,417.0,-2.8147078864436006,0.17608707109623423,-9.819912382390932,,,,,,,,,,
acc,1778674618.0,417.0,-2.8451440880290932,0.17391898616242987,-9.819099593798075,,,,,,,,,,
acc,1778674618.0,417.0,-2.8756586800375996,0.1717706032219274,-9.817193787725419,,,,,,,,,,
acc,1778674618.0,417.0,-2.9058959775044846,0.17102612113439694,-9.817009147170252,,,,,,,,,,
acc,1778674618.0,417.0,-2.9351840587379554,0.16922349558203234,-9.815512804877493,,,,,,,,,,
acc,1778674618.0,417.0,-2.9638510277160104,0.16779222356767126,-9.814739996346116,,,,,,,,,,
acc,1778674618.0,417.0,-2.9932868971979865,0.16601898534907944,-9.813619237975507,,,,,,,,,,
acc,1778674618.0,417.0,-3.0231652110449665,0.1646168335472799,-9.81282813314934,,,,,,,,,,
acc,1778674618.0,417.0,-3.052772012748399,0.16322742346990418,-9.812363695276048,,,,,,,,,,
acc,1778674618.0,417.0,-3.0817548062981244,0.161176197998191,-9.811867974263707,,,,,,,,,,
acc,1778674618.0,417.0,-3.1108291890177746,0.15946308137974036,-9.811376757997117,,,,,,,,,,
acc,1778674618.0,417.0,-3.138574457181485,0.15883044043757433,-9.811244977949743,,,,,,,,,,
acc,1778674618.0,417.0,-3.1674874683549836,0.15855851176052643,-9.811149889933429,,,,,,,,,,
acc,1778674618.0,417.0,-3.196492712020574,0.15722415527831185,-9.811410638360808,,,,,,,,,,
acc,1778674618.0,417.0,-3.225234377744207,0.15696682323784597,-9.811669017301668,,,,,,,,,,
acc,1778674618.0,417.0,-3.253004925268804,0.15635686642377192,-9.812280011502692,,,,,,,,,,
acc,1778674618.0,417.0,-3.279813179495834,0.1561074156261098,-9.812140023483806,,,,,,,,,,
acc,1778674618.0,417.0,-3.3070877559507306,0.15412089216162453,-9.812711242982324,,,,,,,,,,
acc,1778674618.0,417.0,-3.334824417051851,0.15282686158480194,-9.813312766166504,,,,,,,,,,
acc,1778674618.0,417.0,-3.361954056215161,0.15154459017635025,-9.813518365557838,,,,,,,,,,
acc,1778674618.0,417.0,-3.3891921340218194,0.1499189988999397,-9.814077059706582,,,,,,,,,,
acc,1778674618.0,417.0,-3.416182692938593,0.1483081797580021,-9.814275713804188,,,,,,,,,,
acc,1778674618.0,417.0,-3.4429279822773555,0.1456825947856385,-9.815572955382587,,,,,,,,,,
acc,1778674618.0,417.0,-3.4694302309081864,0.1434358412242607,-9.815758015996597,,,,,,,,,,
acc,1778674618.0,417.0,-3.4960111159587814,0.14188393594410506,-9.816296357917533,,,,,,,,,,
acc,1778674618.0,417.0,-3.5216760138191736,0.13931672965718886,-9.817539742835644,,,,,,,,,,
acc,1778674618.0,417.0,-3.5467527259220897,0.13677285216183632,-9.817742425365042,,,,,,,,,,
acc,1778674618.0,417.0,-3.5716015602395905,0.13528149486309687,-9.817907771596579,,,,,,,,,,
acc,1778674618.0,417.0,-3.5962245875892522,0.13380368986485128,-9.818426578199237,,,,,,,,,,
acc,1778674618.0,417.0,-3.621333794834579,0.13201984559430413,-9.818266229896091,,,,,,,,,,
acc,1778674618.0,417.0,-3.6455048942987673,0.13128161473823335,-9.818781779069218,,,,,,,,,,
acc,1778674618.0,417.0,-3.668391438916573,0.13090506428543036,-9.818263240166038,,,,,,,,,,
acc,1778674618.0,417.0,-3.6921349151412826,0.13191631065663048,-9.818104376169371,,,,,,,,,,
acc,1778674618.0,417.0,-3.7163725639273633,0.1322084238161147,-9.81794695580449,,,,,,,,,,
acc,1778674618.0,417.0,-3.7396800252772944,0.13217841415001033,-9.818145937831503,,,,,,,,,,
acc,1778674618.0,417.0,-3.762420723936464,0.13246814550164318,-9.817349203178617,,,,,,,,,,
acc,1778674618.0,417.0,-3.784599801162232,0.13208081295011914,-9.817553617060614,,,,,,,,,,
acc,1778674618.0,417.0,-3.806577332401598,0.13205196290926619,-9.817365707109271,,,,,,,,,,
acc,1778674618.0,417.0,-3.8283551491754664,0.13095847778751152,-9.816540559117204,,,,,,,,,,
acc,1778674618.0,417.0,-3.849935066360249,0.13125929484042387,-9.815758412958042,,,,,,,,,,
acc,1778674618.0,417.0,-3.8709639105658806,0.13226732185260862,-9.815231844569482,,,,,,,,,,
acc,1778674618.0,417.0,-3.8921566330643347,0.132236776980913,-9.813751656556754,,,,,,,,,,
acc,1778674618.0,417.0,-3.9138667073234146,0.13288094962277694,-9.812249424869387,,,,,,,,,,
acc,1778674618.0,417.0,-3.9350245350565367,0.13316429681136907,-9.810086404353074,,,,,,,,,,
acc,1778674618.0,417.0,-3.955280153886034,0.13380004087539646,-9.80861747953038,,,,,,,,,,
acc,1778674618.0,417.0,-3.9750322376466007,0.1340750361108721,-9.807197397567903,,,,,,,,,,
acc,1778674618.0,417.0,-3.9942498676581937,0.1333181299896532,-9.806464650916931,,,,,,,,,,
acc,1778674618.0,417.0,-4.013967293935966,0.13221313944910137,-9.805064132168306,,,,,,,,,,
acc,1778674618.0,417.0,-4.033860515689756,0.13111819017730925,-9.804670248107882,,,,,,,,,,
acc,1778674618.0,417.0,-4.05428289798666,0.13038815347387434,-9.803250541056551,,,,,,,,,,
acc,1778674618.0,417.0,-4.074164735545777,0.1296647507575249,-9.802234192132133,,,,,,,,,,
acc,1778674618.0,417.0,-4.093865902958439,0.12997732395587186,-9.801582050576377,,,,,,,,,,
acc,1778674618.0,417.0,-4.1140979670433095,0.13099699992815259,-9.801219808797898,,,,,,,,,,
acc,1778674618.0,417.0,-4.132726310299345,0.1312974667466903,-9.800825355261503,,,,,,,,,,
acc,1778674618.0,417.0,-4.149801009636698,0.13195017473281842,-9.800469989718078,,,,,,,,,,
acc,1778674618.0,417.0,-4.168104912438939,0.13192251184370468,-9.80043732148755,,,,,,,,,,
acc,1778674619.0,418.0,-4.18695242727302,0.13189510033253507,-9.800085482092609,,,,,,,,,,
acc,1778674619.0,418.0,-4.205628671166711,0.13151297547238272,-9.800056307944704,,,,,,,,,,
acc,1778674619.0,418.0,-4.223780228991408,0.1311343230529189,-9.800027398907785,,,,,,,,,,
acc,1778674619.0,418.0,-4.241092400702849,0.13111407393765956,-9.800353724078454,,,,,,,,,,
acc,1778674619.0,418.0,-4.258247253475779,0.13109400882989342,-9.799967140883194,,,,,,,,,,
acc,1778674619.0,418.0,-4.27524621691202,0.13107412605749216,-9.800648976001979,,,,,,,,,,
acc,1778674619.0,418.0,-4.292765147056354,0.12998952772376282,-9.800295213340092,,,,,,,,,,
acc,1778674619.0,418.0,-4.311544747122434,0.13029914949475113,-9.800974067171403,,,,,,,,,,
acc,1778674619.0,418.0,-4.3297987220698895,0.1309609291253906,-9.801327284189973,,,,,,,,,,
acc,1778674619.0,418.0,-4.346466952234178,0.13126172360492955,-9.802706693185387,,,,,,,,,,
acc,1778674619.0,418.0,-4.36230928489632,0.13155978471037247,-9.802014754765384,,,,,,,,,,
acc,1778674619.0,418.0,-4.37868208566147,0.13256508011676071,-9.80267798278164,,,,,,,,,,
acc,1778674619.0,418.0,-4.395971008973427,0.13285129740672982,-9.802270278788642,,,,,,,,,,
acc,1778674619.0,418.0,-4.413812758447055,0.1317505498716462,-9.802966679195707,,,,,,,,,,
acc,1778674619.0,418.0,-4.4314923767563,0.13275411168201376,-9.803621256875191,,,,,,,,,,
acc,1778674619.0,418.0,-4.447591469888177,0.1341035162393508,-9.80391492399921,,,,,,,,,,
acc,1778674619.0,418.0,-4.463189296339308,0.13544065851842224,-9.80420592251805,,,,,,,,,,
acc,1778674619.0,418.0,-4.478645382589381,0.1367656499496771,-9.804494276682002,,,,,,,,,,
acc,1778674619.0,418.0,-4.494670959369811,0.13701369598453803,-9.80446053357878,,,,,,,,,,
acc,1778674619.0,418.0,-4.511615804781348,0.1372594879816591,-9.805101536294426,,,,,,,,,,
acc,1778674619.0,418.0,-4.528051698094247,0.13682861633836946,-9.805381751860176,,,,,,,,,,
acc,1778674619.0,418.0,-4.54291836846363,0.1364016601005507,-9.806404849027683,,,,,,,,,,
acc,1778674619.0,418.0,-4.5569755127730565,0.13562361237132245,-9.807418649134167,,,,,,,,,,
acc,1778674619.0,418.0,-4.572289290042905,0.1341427013663488,-9.80838773317244,,,,,,,,,,
acc,1778674619.0,418.0,-4.588848271923662,0.13303021895437045,-9.809028543168326,,,,,,,,,,
acc,1778674619.0,418.0,-4.605611750793853,0.1340221519499186,-9.808953596516584,,,,,,,,,,
acc,1778674619.0,418.0,-4.621193486708068,0.13429512851211145,-9.807849929640915,,,,,,,,,,
acc,1778674619.0,418.0,-4.635213761806391,0.13527556704357163,-9.807395227550055,,,,,,,,,,
acc,1778674619.0,418.0,-4.649106632289931,0.13553715362538915,-9.804885854948408,,,,,,,,,,
acc,1778674619.0,418.0,-4.66287325591397,0.1357963631257762,-9.803854646712653,,,,,,,,,,
acc,1778674619.0,418.0,-4.677934646757113,0.13814752301299732,-9.800703008973144,,,,,,,,,,
acc,1778674619.0,418.0,-4.692859172215773,0.13944791634633985,-9.799354848757668,,,,,,,,,,
acc,1778674619.0,418.0,-4.706583180469464,0.14073649278808362,-9.796563578313712,,,,,,,,,,
acc,1778674619.0,418.0,-4.718443141863706,0.14062898735788862,-9.79344270137574,,,,,,,,,,
acc,1778674619.0,418.0,-4.730905263185386,0.13771821977730403,-9.789995213138003,,,,,,,,,,
acc,1778674619.0,418.0,-4.743928569017335,0.13554384526428184,-9.786934024017041,,,,,,,,,,
acc,1778674619.0,418.0,-4.758253396599952,0.13267928722389047,-9.78425562364076,,,,,,,,,,
acc,1778674619.0,418.0,-4.772448052116537,0.12845639672042383,-9.781282085516764,,,,,,,,,,
acc,1778674619.0,418.0,-4.785448823039963,0.12462684242993094,-9.77971994065784,,,,,,,,,,
acc,1778674619.0,418.0,-4.797302052813496,0.12083208792590874,-9.778562456853157,,,,,,,,,,
acc,1778674619.0,418.0,-4.811141866746113,0.11845618916376138,-9.777025025711026,,,,,,,,,,
acc,1778674619.0,418.0,-4.82588532610733,0.11645685176318198,-9.77585653663878,,,,,,,,,,
acc,1778674619.0,418.0,-4.83875547502861,0.11447568266595316,-9.7760830288718,,,,,,,,,,
acc,1778674619.0,418.0,-4.850479260788138,0.11180257443008608,-9.773858195473068,,,,,,,,,,
acc,1778674619.0,418.0,-4.862096510614603,0.10879879508149155,-9.773073445983243,,,,,,,,,,
acc,1778674619.0,418.0,-4.874637602625916,0.10688721595287537,-9.77194086556523,,,,,,,,,,
acc,1778674619.0,418.0,-4.887774655856371,0.10534796971833361,-9.769789167099276,,,,,,,,,,
acc,1778674619.0,418.0,-4.900437368518401,0.10520708289569326,-9.769715832319768,,,,,,,,,,
acc,1778674619.0,418.0,-4.910890707872241,0.10506747633411043,-9.768968725131987,,,,,,,,,,
acc,1778674619.0,418.0,-4.920894094014092,0.10386423406930405,-9.76613410184058,,,,,,,,,,
acc,1778674619.0,418.0,-4.932190940684097,0.10409179222030127,-9.766093981171212,,,,,,,,,,
acc,1778674619.0,418.0,-4.943740102246657,0.10463675016954439,-9.765770251816258,,,,,,,,,,
acc,1778674619.0,418.0,-4.956249209950139,0.1055317271240117,-9.763994094444824,,,,,,,,,,
acc,1778674619.0,418.0,-4.966905311467776,0.10780294319968434,-9.765002821131686,,,,,,,,,,
acc,1778674619.0,418.0,-4.9781390180706095,0.10937908162014032,-9.76468900731844,,,,,,,,,,
acc,1778674619.0,418.0,-4.989980575350448,0.11268023132810244,-9.764662018433938,,,,,,,,,,
acc,1778674619.0,418.0,-5.001004593419222,0.11559642095274614,-9.766019637578696,,,,,,,,,,
acc,1778674619.0,418.0,-5.013348300742823,0.1181311396049715,-9.765696583820079,,,,,,,,,,
acc,1778674619.0,418.0,-5.024869905765207,0.1227371298099209,-9.768109705890474,,,,,,,,,,
acc,1778674619.0,418.0,-5.035221907977974,0.1269463026591971,-9.769790966446713,,,,,,,,,,
acc,1778674619.0,418.0,-5.044805410318236,0.13079774939502456,-9.772202376599525,,,,,,,,,,
acc,1778674619.0,418.0,-5.05604115966469,0.13528863613640316,-9.774201417514886,,,,,,,,,,
acc,1778674619.0,418.0,-5.067529770011308,0.14112308526000142,-9.776217787217995,,,,,,,,,,
acc,1778674619.0,418.0,-5.0799433913417555,0.1458751060830566,-9.78023914082305,,,,,,,,,,
acc,1778674619.0,418.0,-5.091214798432826,0.1495545438986015,-9.782875074414912,,,,,,,,,,
acc,1778674619.0,418.0,-5.1030582191830005,0.15075127934593155,-9.783712226791266,,,,,,,,,,
acc,1778674619.0,418.0,-5.115503949992804,0.15158217789682793,-9.784222304238103,,,,,,,,,,
acc,1778674619.0,418.0,-5.127481622565346,0.15137611622900526,-9.785792641542077,,,,,,,,,,
acc,1778674619.0,418.0,-5.140060385222746,0.1476932597822437,-9.787703680008235,,,,,,,,,,
acc,1778674619.0,418.0,-5.153909205318119,0.14436333760192643,-9.788141992155357,,,,,,,,,,
acc,1778674619.0,418.0,-5.167632179074306,0.14141863689532988,-9.78967671064909,,,,,,,,,,
acc,1778674619.0,418.0,-5.180520526160122,0.1374712945439881,-9.789777616908646,,,,,,,,,,
acc,1778674619.0,418.0,-5.192617316256313,0.133914793335827,-9.790942510261418,,,,,,,,,,
acc,1778674619.0,418.0,-5.207727886157779,0.13177498220254344,-9.790996419639963,,,,,,,,,,
acc,1778674619.0,418.0,-5.222346172985843,0.1303290453792527,-9.791795266500364,,,,,,,,,,
acc,1778674619.0,418.0,-5.235092287701339,0.12925121903628944,-9.79084752058794,,,,,,,,,,
acc,1778674619.0,418.0,-5.246338204977273,0.12782821603322153,-9.79129275855735,,,,,,,,,,
acc,1778674619.0,418.0,-5.257126966968046,0.1274830480686544,-9.790349579022548,,,,,,,,,,
acc,1778674619.0,418.0,-5.268172651793136,0.1260761127105579,-9.789095502740894,,,,,,,,,,
acc,1778674619.0,418.0,-5.279117962821153,0.12503693340704453,-9.788811225114262,,,,,,,,,,
acc,1778674619.0,418.0,-5.290318783185087,0.12471713023206554,-9.785050863847902,,,,,,,,,,
acc,1778674619.0,418.0,-5.29825861159806,0.12127652820005881,-9.784803340432607,,,,,,,,,,
acc,1778674619.0,418.0,-5.305096889113183,0.1161278580044187,-9.781079399442023,,,,,,,,,,
acc,1778674619.0,418.0,-5.311163093245933,0.11205537502543017,-9.779164126249443,,,,,,,,,,
acc,1778674619.0,418.0,-5.317529143884798,0.10975923270852025,-9.778366655740252,,,,,,,,,,
acc,1778674619.0,418.0,-5.3241923071913755,0.10851335624495886,-9.774701205898959,,,,,,,,,,
acc,1778674619.0,418.0,-5.329765520883524,0.10553946786992441,-9.77284389229569,,,,,,,,,,
acc,1778674619.0,418.0,-5.333548756591612,0.10191816512162218,-9.771748892750328,,,,,,,,,,
acc,1778674619.0,418.0,-5.340421318268135,0.10109851257075393,-9.76885351244267,,,,,,,,,,
acc,1778674619.0,418.0,-5.347586389866398,0.10273557456557797,-9.769108147655363,,,,,,,,,,
acc,1778674619.0,418.0,-5.3525920561666736,0.10364782743832396,-9.768402057276715,,,,,,,,,,
acc,1778674619.0,418.0,-5.354428530509426,0.10629112384999596,-9.770080660708306,,,,,,,,,,
acc,1778674619.0,418.0,-5.361111354550616,0.10926537122474997,-9.769685200503718,,,,,,,,,,
acc,1778674619.0,418.0,-5.369827745975813,0.11395192446807866,-9.771387638182448,,,,,,,,,,
acc,1778674619.0,418.0,-5.376370635091295,0.12207455687571526,-9.77449447131738,,,,,,,,,,
acc,1778674619.0,418.0,-5.380404792778714,0.1304783487091846,-9.775762741100857,,,,,,,,,,
acc,1778674619.0,418.0,-5.388235938069046,0.14157450770228047,-9.774605723258945,,,,,,,,,,
acc,1778674619.0,418.0,-5.397380282866503,0.1546641384970785,-9.779387152023173,,,,,,,,,,
acc,1778674619.0,418.0,-5.406122064146762,0.16277178406749435,-9.780646464764553,,,,,,,,,,
acc,1778674619.0,418.0,-5.415458846067427,0.16803702067462936,-9.783314199661968,,,,,,,,,,
acc,1778674619.0,418.0,-5.424710783285512,0.17325441130680896,-9.787271065969621,,,,,,,,,,
acc,1778674619.0,418.0,-5.433878646798662,0.17388082051070952,-9.790198069665704,,,,,,,,,,
acc,1778674619.0,418.0,-5.444347571919215,0.1765958325222535,-9.794127875606586,,,,,,,,,,
acc,1778674619.0,418.0,-5.45578625911038,0.17822127810463134,-9.795608199165645,,,,,,,,,,
acc,1778674619.0,418.0,-5.465026697141046,0.1791575145582994,-9.798494936485186,,,,,,,,,,
acc,1778674619.0,418.0,-5.471733899960028,0.17799093916176847,-9.797876775257624,,,,,,,,,,
acc,1778674619.0,418.0,-5.478025182493188,0.17438569861094577,-9.798577604816174,,,,,,,,,,
acc,1778674619.0,418.0,-5.484969237142832,0.17013878094684032,-9.797213265179339,,,,,,,,,,
acc,1778674619.0,418.0,-5.489755886058687,0.16486556094759652,-9.794476952216623,,,,,,,,,,
acc,1778674619.0,418.0,-5.4941440670483646,0.1572264878737052,-9.790665106383122,,,,,,,,,,
acc,1778674619.0,418.0,-5.498847342954001,0.14965683216300832,-9.78688789934468,,,,,,,,,,
acc,1778674619.0,418.0,-5.502478479203051,0.14354032518012794,-9.784245414465982,,,,,,,,,,
acc,1778674619.0,418.0,-5.507106019095392,0.13783437072910418,-9.778112772546178,,,,,,,,,,
acc,1778674619.0,418.0,-5.511017069425776,0.13218026711026867,-9.774804592233687,,,,,,,,,,
acc,1778674619.0,418.0,-5.514537617618964,0.12622257220133587,-9.767728340146736,,,,,,,,,,
acc,1778674619.0,418.0,-5.51628683190535,0.12031901572505671,-9.765579428397723,,,,,,,,,,
acc,1778674619.0,418.0,-5.5214988260830795,0.1165634097427618,-9.760006872321048,,,,,,,,,,
acc,1778674619.0,418.0,-5.527337887459318,0.1124869696387357,-9.759986927209477,,,,,,,,,,
acc,1778674619.0,418.0,-5.532094488168201,0.1098319348614973,-9.760002666796963,,,,,,,,,,
acc,1778674619.0,418.0,-5.537517797751995,0.10826593049428992,-9.760018263356553,,,,,,,,,,
acc,1778674619.0,418.0,-5.546370500139692,0.10635919478404257,-9.75935927976909,,,,,,,,,,
acc,1778674619.0,418.0,-5.554432823966644,0.10514421518395686,-9.762894892427198,,,,,,,,,,
acc,1778674619.0,418.0,-5.562066913366721,0.10220094323619847,-9.763239168775467,,,,,,,,,,
acc,1778674619.0,418.0,-5.569986601635118,0.10070428277899975,-9.763580316635222,,,,,,,,,,
acc,1778674619.0,418.0,-5.576449951377716,0.09989566109838618,-9.763882870068521,,,,,,,,,,
acc,1778674619.0,418.0,-5.583564500509375,0.09841994907245749,-9.766312472474825,,,,,,,,,,
acc,1778674619.0,418.0,-5.590259427786763,0.09415341033709355,-9.769465423873953,,,,,,,,,,
acc,1778674619.0,418.0,-5.5986328594004595,0.09340431735636175,-9.777417266776396,,,,,,,,,,
acc,1778674619.0,418.0,-5.61040886645357,0.09511129726041845,-9.779013947442031,,,,,,,,,,
acc,1778674619.0,418.0,-5.6220778632498405,0.10447003943830857,-9.783009890237857,,,,,,,,,,
acc,1778674619.0,418.0,-5.631901489215189,0.11651247970252859,-9.78767945409251,,,,,,,,,,
acc,1778674620.0,419.0,-5.640570951896609,0.12670614652132764,-9.789892813575262,,,,,,,,,,
acc,1778674620.0,419.0,-5.649871557604884,0.133683477909279,-9.793789898560508,,,,,,,,,,
acc,1778674620.0,419.0,-5.659087647384927,0.1311907985719855,-9.798751968220465,,,,,,,,,,
acc,1778674620.0,419.0,-5.668574960165377,0.12488713370550593,-9.799444844700961,,,,,,,,,,
acc,1778674620.0,419.0,-5.674497385367339,0.11480711428861581,-9.801941755698383,,,,,,,,,,
acc,1778674620.0,419.0,-5.67827169785909,0.10797789189674502,-9.803706044162892,,,,,,,,,,
acc,1778674620.0,419.0,-5.685135416718393,0.10919747782382058,-9.803288998597631,,,,,,,,,,
acc,1778674620.0,419.0,-5.693321135112048,0.11423960892941531,-9.807809777625307,,,,,,,,,,
acc,1778674620.0,419.0,-5.695859489883167,0.12026533076510254,-9.806397038479625,,,,,,,,,,
acc,1778674620.0,419.0,-5.6969904071501265,0.12449696307122783,-9.80879527043744,,,,,,,,,,
acc,1778674620.0,419.0,-5.702299655308633,0.12592139971350005,-9.811526680234033,,,,,,,,,,
acc,1778674620.0,419.0,-5.708270590312973,0.12594852119122496,-9.81284889821587,,,,,,,,,,
acc,1778674620.0,419.0,-5.711028068190268,0.12281619781704291,-9.814159101015687,,,,,,,,,,
acc,1778674620.0,419.0,-5.712731088285726,0.12077724195074947,-9.815776874362141,,,,,,,,,,
acc,1778674620.0,419.0,-5.715802994805916,0.12085110910464372,-9.813226833484205,,,,,,,,,,
acc,1778674620.0,419.0,-5.718846986477222,0.1191849721034522,-9.81833174429483,,,,,,,,,,
acc,1778674620.0,419.0,-5.724312582602737,0.11437477716084045,-9.815758486971362,,,,,,,,,,
acc,1778674620.0,419.0,-5.729728512084202,0.11134762604463481,-9.818462115368765,,,,,,,,,,
acc,1778674620.0,419.0,-5.732290998806266,0.11079724870323333,-9.820750710243333,,,,,,,,,,
acc,1778674620.0,419.0,-5.7324164285945685,0.11096180544054728,-9.820888719254006,,,,,,,,,,
acc,1778674620.0,419.0,-5.733925089661537,0.1128641997211249,-9.821415930338276,,,,,,,,,,
acc,1778674620.0,419.0,-5.7371593742023705,0.11159010834894996,-9.818459684801654,,,,,,,,,,
acc,1778674620.0,419.0,-5.740364268343714,0.1100081273735913,-9.822807111166895,,,,,,,,,,
acc,1778674620.0,419.0,-5.7435400391604565,0.10946992224855831,-9.822961927739827,,,,,,,,,,
acc,1778674620.0,419.0,-5.747716351464703,0.10790720770512534,-9.823434804922476,,,,,,,,,,
acc,1778674620.0,419.0,-5.7532745784571055,0.10667816121780467,-9.82670762149171,,,,,,,,,,
acc,1778674620.0,419.0,-5.759101764507089,0.10688014867199849,-9.824768184178227,,,,,,,,,,
acc,1778674620.0,419.0,-5.7645565306499575,0.10392110234934383,-9.823911274413238,,,,,,,,,,
acc,1778674620.0,419.0,-5.768541863148305,0.1034382108702273,-9.82125182082859,,,,,,,,,,
acc,1778674620.0,419.0,-5.771106609318781,0.10469904944241976,-9.817196668657616,,,,,,,,,,
acc,1778674620.0,419.0,-5.774677449432501,0.10491902135814281,-9.815343658706038,,,,,,,,,,
acc,1778674620.0,419.0,-5.7768314788615465,0.10165832864822273,-9.811732660097732,,,,,,,,,,
acc,1778674620.0,419.0,-5.781060238069891,0.09874673375558722,-9.809893807992632,,,,,,,,,,
acc,1778674620.0,419.0,-5.7848955990550595,0.09586159693441346,-9.80775219835048,,,,,,,,,,
acc,1778674620.0,419.0,-5.789406040277833,0.09683631434189675,-9.808008326635864,,,,,,,,,,
acc,1778674620.0,419.0,-5.7959697982247915,0.10060641079162863,-9.808972051060268,,,,,,,,,,
acc,1778674620.0,419.0,-5.8028288721886625,0.10260290591930017,-9.810317483241722,,,,,,,,,,
acc,1778674620.0,419.0,-5.809270654980802,0.10422629681073185,-9.81441943135599,,,,,,,,,,
acc,1778674620.0,419.0,-5.817748204115913,0.1051250030253415,-9.814614973569853,,,,,,,,,,
acc,1778674620.0,419.0,-5.822670041824501,0.10427620973927784,-9.81732899311676,,,,,,,,,,
acc,1778674620.0,419.0,-5.825452850385262,0.09821712198345248,-9.816149219077053,,,,,,,,,,
acc,1778674620.0,419.0,-5.82750043848205,0.09153865567622042,-9.818103869658353,,,,,,,,,,
acc,1778674620.0,419.0,-5.835812330998062,0.09116828521592561,-9.819330825364329,,,,,,,,,,
acc,1778674620.0,419.0,-5.844048692183789,0.09115625125283028,-9.822001991296633,,,,,,,,,,
acc,1778674620.0,419.0,-5.8494059720066645,0.09217372677252819,-9.827027160753227,,,,,,,,,,
acc,1778674620.0,419.0,-5.855069531279475,0.09353692723788043,-9.830231838613738,,,,,,,,,,
acc,1778674620.0,419.0,-5.8617110342101215,0.09211899808387858,-9.837241022545713,,,,,,,,,,
acc,1778674620.0,419.0,-5.86971205024913,0.09138839217458226,-9.841417780108458,,,,,,,,,,
acc,1778674620.0,419.0,-5.876930418164388,0.08789568336464866,-9.846976448263446,,,,,,,,,,
acc,1778674620.0,419.0,-5.879539622578246,0.08443471328756841,-9.851100233016938,,,,,,,,,,
acc,1778674620.0,419.0,-5.883190020356852,0.0827445354201939,-9.850004040312479,,,,,,,,,,
acc,1778674620.0,419.0,-5.886452284663174,0.08522282035969095,-9.849521249373062,,,,,,,,,,
acc,1778674620.0,419.0,-5.889684904318381,0.08700414645808427,-9.844570274267664,,,,,,,,,,
acc,1778674620.0,419.0,-5.891148806822925,0.08770438183199254,-9.843178449321451,,,,,,,,,,
acc,1778674620.0,419.0,-5.893628806756147,0.08736885395438554,-9.841408815923774,,,,,,,,,,
acc,1778674620.0,419.0,-5.8971511741471465,0.08774630774508735,-9.841004130979451,,,,,,,,,,
acc,1778674620.0,419.0,-5.901670933407017,0.08879476987725499,-9.840248152580653,,,,,,,,,,
acc,1778674620.0,419.0,-5.905475182668411,0.08947873360525688,-9.840954412668312,,,,,,,,,,
acc,1778674620.0,419.0,-5.909244862186489,0.08809768183907009,-9.838175580210018,,,,,,,,,,
acc,1778674620.0,419.0,-5.9105310206394135,0.0863742180880826,-9.837835770489521,,,,,,,,,,
acc,1778674620.0,419.0,-5.913189862580673,0.08640574847600989,-9.834020383099945,,,,,,,,,,
acc,1778674620.0,419.0,-5.914440172266904,0.08572705966796519,-9.831304561135916,,,,,,,,,,
acc,1778674620.0,419.0,-5.917063491201364,0.08576447087384628,-9.828258456430781,,,,,,,,,,
acc,1778674620.0,419.0,-5.92037290434486,0.08335226758004141,-9.828718697659724,,,,,,,,,,
acc,1778674620.0,419.0,-5.924007206183206,0.08131695519333794,-9.828074358697979,,,,,,,,,,
acc,1778674620.0,419.0,-5.925514188047661,0.07930013797358754,-9.828855740278188,,,,,,,,,,
acc,1778674620.0,419.0,-5.92665250487894,0.07694667697332425,-9.82966552478416,,,,,,,,,,
acc,1778674620.0,419.0,-5.927780477666792,0.07287526942920038,-9.828409141377064,,,,,,,,,,
acc,1778674620.0,419.0,-5.930992504057389,0.06955079200184261,-9.827519145779352,,,,,,,,,,
acc,1778674620.0,419.0,-5.93488527498681,0.06973519918679558,-9.82557233414778,,,,,,,,,,
acc,1778674620.0,419.0,-5.936293406330086,0.06991793063801498,-9.823962689980519,,,,,,,,,,
acc,1778674620.0,419.0,-5.939073112762669,0.07112840168011063,-9.822367672873606,,,,,,,,,,
acc,1778674620.0,419.0,-5.941117617861849,0.07197290212625819,-9.820432179031553,,,,,,,,,,
acc,1778674620.0,419.0,-5.943498515136042,0.06901159552696398,-9.819259700319506,,,,,,,,,,
acc,1778674620.0,419.0,-5.946567709532135,0.07129519701417962,-9.8184173435125,,,,,,,,,,
acc,1778674620.0,419.0,-5.9482246427623835,0.07213818176596536,-9.816553241225343,,,,,,,,,,
acc,1778674620.0,419.0,-5.951960822844126,0.07403840973947881,-9.8150255548093,,,,,,,,,,
acc,1778674620.0,419.0,-5.953888215533505,0.07521143741288076,-9.813156779816056,,,,,,,,,,
acc,1778674620.0,419.0,-5.956508035489002,0.07463447286583737,-9.810275586549663,,,,,,,,,,
acc,1778674620.0,419.0,-5.957719677811214,0.07406275127574874,-9.807385080725167,,,,,,,,,,
acc,1778674620.0,419.0,-5.959594738985869,0.0734962249991252,-9.804911297477673,,,,,,,,,,
acc,1778674620.0,419.0,-5.9646119683824725,0.07502915045135033,-9.80483827053285,,,,,,,,,,
acc,1778674620.0,419.0,-5.967489301894761,0.07271450053578458,-9.804446439767936,,,,,,,,,,
acc,1778674620.0,419.0,-5.969985526890984,0.06868155141656791,-9.802673798662038,,,,,,,,,,
acc,1778674620.0,419.0,-5.970364764722833,0.06887385750852515,-9.802656598539278,,,,,,,,,,
acc,1778674620.0,419.0,-5.971450489028309,0.06487580884829096,-9.802994525590197,,,,,,,,,,
acc,1778674620.0,419.0,-5.97217137633287,0.06300839462946015,-9.803684343637531,,,,,,,,,,
acc,1778674620.0,419.0,-5.9739151129189585,0.06044801720317621,-9.80326749531862,,,,,,,,,,
acc,1778674620.0,419.0,-5.976707907460949,0.05897580981373815,-9.802605965342892,,,,,,,,,,
acc,1778674620.0,419.0,-5.977026058091418,0.05613260962101579,-9.800885543250375,,,,,,,,,,
acc,1778674620.0,419.0,-5.978406212086603,0.057468349760851835,-9.802304458567663,,,,,,,,,,
acc,1778674620.0,419.0,-5.978353959115737,0.05879195184485997,-9.80126121460754,,,,,,,,,,
acc,1778674620.0,419.0,-5.980751455457735,0.0601035261732582,-9.801576327342243,,,,,,,,,,
acc,1778674620.0,419.0,-5.983127165418181,0.0607287437481756,-9.798800367274847,,,,,,,,,,
acc,1778674620.0,419.0,-5.985481286972981,0.06028338544328531,-9.800593201742368,,,,,,,,,,
acc,1778674620.0,419.0,-5.988523939867883,0.06229133956248608,-9.797826175476168,,,,,,,,,,
acc,1778674620.0,419.0,-5.991183981970122,0.06115734343969058,-9.797462561141984,,,,,,,,,,
acc,1778674620.0,419.0,-5.994529784556486,0.06141802304623616,-9.797137754469745,,,,,,,,,,
acc,1778674620.0,419.0,-5.996780288932587,0.06132136295009772,-9.796780395912632,,,,,,,,,,
acc,1778674620.0,419.0,-6.002134046343351,0.06122558121764109,-9.795077417222315,,,,,,,,,,
acc,1778674620.0,419.0,-6.006764715125888,0.06042073721295873,-9.795839179120046,,,,,,,,,,
acc,1778674620.0,419.0,-6.011353304379945,0.05685447413122201,-9.79485468605207,,,,,,,,,,
acc,1778674620.0,419.0,-6.014515825542225,0.055059950904895065,-9.795618471937901,,,,,,,,,,
acc,1778674620.0,419.0,-6.01658471400088,0.0525718021065582,-9.793926051814495,,,,,,,,,,
acc,1778674620.0,419.0,-6.018279831313787,0.05358492891536743,-9.796473112502273,,,,,,,,,,
acc,1778674620.0,419.0,-6.022408810239818,0.05284951657417015,-9.795837820578729,,,,,,,,,,
acc,1778674620.0,419.0,-6.026145306780408,0.05212078702670789,-9.795492274701632,,,,,,,,,,
acc,1778674620.0,419.0,-6.029173410968917,0.05001430860293132,-9.795895304947363,,,,,,,,,,
acc,1778674620.0,419.0,-6.0328484366461925,0.051050675706105726,-9.795549236702191,,,,,,,,,,
acc,1778674620.0,419.0,-6.035815628566322,0.053142528718149985,-9.797691082049298,,,,,,,,,,
acc,1778674620.0,419.0,-6.038755857202921,0.05588981106242651,-9.797044722269916,,,,,,,,,,
acc,1778674620.0,419.0,-6.040249502274235,0.05687278666301877,-9.796688209111451,,,,,,,,,,
acc,1778674620.0,419.0,-6.0462731433470625,0.05681742975742163,-9.799529637106586,,,,,,,,,,
acc,1778674620.0,419.0,-6.048408410451025,0.062335544917222326,-9.799150543184583,,,,,,,,,,
acc,1778674620.0,419.0,-6.050879235868681,0.06396988898080538,-9.799129865009833,,,,,,,,,,
acc,1778674620.0,419.0,-6.051588275835077,0.06697374338458785,-9.79673109809364,,,,,,,,,,
acc,1778674620.0,419.0,-6.053675243594586,0.06544223584214708,-9.794318634743489,,,,,,,,,,
acc,1778674620.0,419.0,-6.056098208570265,0.06633840723908987,-9.794732330015695,,,,,,,,,,
acc,1778674620.0,419.0,-6.060593459312937,0.06548710228566763,-9.79066968575284,,,,,,,,,,
acc,1778674620.0,419.0,-6.063308528374251,0.06325916232227613,-9.790087130372145,,,,,,,,,,
acc,1778674620.0,419.0,-6.064934030799276,0.062435838892643314,-9.78702510902848,,,,,,,,,,
acc,1778674620.0,419.0,-6.065160391124252,0.05988066440176237,-9.78612071063917,,,,,,,,,,
acc,1778674620.0,419.0,-6.065739656261819,0.05979797449661488,-9.78455009235618,,,,,,,,,,
acc,1778674620.0,419.0,-6.06663312495647,0.06074543607273052,-9.78118341597647,,,,,,,,,,
acc,1778674620.0,419.0,-6.0664890745112805,0.0582056225079748,-9.780971036697013,,,,,,,,,,
acc,1778674621.0,420.0,-6.066701303939332,0.05849312480648697,-9.778346825425665,,,,,,,,,,
acc,1778674621.0,420.0,-6.065527233876774,0.06087230902371082,-9.775391489857984,,,,,,,,,,
acc,1778674621.0,420.0,-6.062624500039527,0.06354934977134961,-9.77175307718673,,,,,,,,,,
acc,1778674621.0,420.0,-6.063901247453402,0.05995465659450989,-9.770277525212348,,,,,,,,,,
acc,1778674621.0,420.0,-6.061687718378943,0.06058122695813089,-9.768815381782641,,,,,,,,,,
acc,1778674621.0,420.0,-6.06055920746102,0.057013505524679174,-9.767402019412794,,,,,,,,,,
acc,1778674621.0,420.0,-6.057346647901968,0.055572508044553014,-9.765611035235306,,,,,,,,,,
acc,1778674621.0,420.0,-6.058316385018117,0.057268308746511364,-9.764546267710807,,,,,,,,,,
acc,1778674621.0,420.0,-6.059632280865202,0.06278232666911548,-9.765549976002834,,,,,,,,,,
acc,1778674621.0,420.0,-6.062356084274565,0.066151943462363,-9.76381132504825,,,,,,,,,,
acc,1778674621.0,420.0,-6.062605870753999,0.06775160737486821,-9.764857206225454,,,,,,,,,,
acc,1778674621.0,420.0,-6.063208349167835,0.06376375684642112,-9.761350014411668,,,,,,,,,,
acc,1778674621.0,420.0,-6.06171105829199,0.06226141890443997,-9.763802632785382,,,,,,,,,,
acc,1778674621.0,420.0,-6.061256773567196,0.05832345847750853,-9.75856569132153,,,,,,,,,,
acc,1778674621.0,420.0,-6.060451646124932,0.056870557277479854,-9.756535536661376,,,,,,,,,,
acc,1778674621.0,420.0,-6.062458071201256,0.05681522063111988,-9.750654699660664,,,,,,,,,,
acc,1778674621.0,420.0,-6.060612627340904,0.05920965218483148,-9.751820136904612,,,,,,,,,,
acc,1778674621.0,420.0,-6.060878256853355,0.060517430786960695,-9.747437509041369,,,,,,,,,,
acc,1778674621.0,420.0,-6.0597571016277865,0.06113888714157165,-9.748951648756991,,,,,,,,,,
acc,1778674621.0,420.0,-6.063154209049401,0.061044763593483986,-9.747683296511825,,,,,,,,,,
acc,1778674621.0,420.0,-6.065136075561555,0.06166142800191312,-9.751005533233155,,,,,,,,,,
acc,1778674621.0,420.0,-6.066744970801342,0.0625919561131535,-9.75007348792216,,,,,,,,,,
acc,1778674621.0,420.0,-6.065889971355923,0.05936092470001004,-9.751954139358187,,,,,,,,,,
acc,1778674621.0,420.0,-6.067492015840018,0.05825355768210355,-9.749238637783508,,,,,,,,,,
acc,1778674621.0,420.0,-6.070818835026402,0.059570024444686585,-9.752866217405785,,,,,,,,,,
acc,1778674621.0,420.0,-6.0748253555897165,0.05846075730905005,-9.754721490922902,,,,,,,,,,
acc,1778674621.0,420.0,-6.076346203004829,0.05839097029598442,-9.757624808819957,,,,,,,,,,
acc,1778674621.0,420.0,-6.077498259405119,0.05555308468776027,-9.760501743866575,,,,,,,,,,
acc,1778674621.0,420.0,-6.075871114151073,0.05377038739631216,-9.763317032359941,,,,,,,,,,
acc,1778674621.0,420.0,-6.073903784126186,0.05477262247946498,-9.763657472596842,,,,,,,,,,
acc,1778674621.0,420.0,-6.07124439885936,0.055091320920162994,-9.763959324846045,,,,,,,,,,
acc,1778674621.0,420.0,-6.071413415998095,0.055052152439965654,-9.76152519572524,,,,,,,,,,
acc,1778674621.0,420.0,-6.067747260992811,0.057107643452191506,-9.765325098753078,,,,,,,,,,
acc,1778674621.0,420.0,-6.066208724406596,0.05878949415704328,-9.76213312256908,,,,,,,,,,
acc,1778674621.0,420.0,-6.062234894288345,0.062195394350772724,-9.764933586496227,,,,,,,,,,
acc,1778674621.0,420.0,-6.061775849395792,0.06486041201878563,-9.762100138903113,,,,,,,,,,
acc,1778674621.0,420.0,-6.05958163412268,0.06682677402319667,-9.766640244341243,,,,,,,,,,
acc,1778674621.0,420.0,-6.057762328850294,0.06494163116616726,-9.766276047812203,,,,,,,,,,
acc,1778674621.0,420.0,-6.051770957821316,0.06204421880560942,-9.768328940851655,,,,,,,,,,
acc,1778674621.0,420.0,-6.048993229184768,0.05881816476719612,-9.76794939890485,,,,,,,,,,
acc,1778674621.0,420.0,-6.046240742151537,0.061194395280180676,-9.770342047748187,,,,,,,,,,
acc,1778674621.0,420.0,-6.044187696540351,0.061809699962411535,-9.767104481861631,,,,,,,,,,
acc,1778674621.0,420.0,-6.040413974541822,0.06206445150972641,-9.768084943301982,,,,,,,,,,
acc,1778674621.0,420.0,-6.037029515739118,0.06022258453535948,-9.766642724178618,,,,,,,,,,
acc,1778674621.0,420.0,-6.03332084111697,0.05978182577946244,-9.770112150456912,,,,,,,,,,
acc,1778674621.0,420.0,-6.030710771235634,0.061084404954421016,-9.77110077515808,,,,,,,,,,
acc,1778674621.0,420.0,-6.027414486779809,0.06482441274725527,-9.770376577755423,,,,,,,,,,
acc,1778674621.0,420.0,-6.024503117891605,0.06746554015790125,-9.772037237848235,,,,,,,,,,
acc,1778674621.0,420.0,-6.021618205014026,0.07391630353175332,-9.772262942015132,,,,,,,,,,
acc,1778674621.0,420.0,-6.0208538112950984,0.07509044075917873,-9.773232022176522,,,,,,,,,,
acc,1778674621.0,420.0,-6.019386431088199,0.07941310641197157,-9.778025932424065,,,,,,,,,,
acc,1778674621.0,420.0,-6.015838081610701,0.08263159699087351,-9.778942643497333,,,,,,,,,,
acc,1778674621.0,420.0,-6.011292576419575,0.08443646978433167,-9.780880433432463,,,,,,,,,,
acc,1778674621.0,420.0,-6.008527709554342,0.08586997967396581,-9.781416243485697,,,,,,,,,,
acc,1778674621.0,420.0,-6.008201738387358,0.08831986311596517,-9.786455259086978,,,,,,,,,,
acc,1778674621.0,420.0,-6.0089436328668935,0.08797874229491419,-9.787295371707053,,,,,,,,,,
acc,1778674621.0,420.0,-6.006555082039212,0.08764072128580216,-9.791925991996125,,,,,,,,,,
acc,1778674621.0,420.0,-6.002093932746889,0.08556643922766073,-9.796195065784575,,,,,,,,,,
acc,1778674621.0,420.0,-5.996963389894894,0.08386597731937669,-9.79836653671587,,,,,,,,,,
acc,1778674621.0,420.0,-5.992234430768814,0.08285539693399019,-9.79980834255306,,,,,,,,,,
acc,1778674621.0,420.0,-5.988258386071744,0.0822089706946055,-9.798468313756151,,,,,,,,,,
acc,1778674621.0,420.0,-5.982898606964669,0.08192338039511009,-9.798098864231878,,,,,,,,,,
acc,1778674621.0,420.0,-5.97968182737639,0.08266978534751859,-9.798087742808994,,,,,,,,,,
acc,1778674621.0,420.0,-5.976494279107731,0.08692357644528428,-9.798822149446167,,,,,,,,,,
acc,1778674621.0,420.0,-5.973690667392204,0.08904440920310175,-9.796781149684485,,,,,,,,,,
acc,1778674621.0,420.0,-5.968143790651508,0.09355974971723108,-9.796462535099964,,,,,,,,,,
acc,1778674621.0,420.0,-5.9654160609755404,0.09629471693159171,-9.795827339307724,,,,,,,,,,
acc,1778674621.0,420.0,-5.964452451245895,0.0990048311218317,-9.799031560958223,,,,,,,,,,
acc,1778674621.0,420.0,-5.9607288652273,0.1013353563555407,-9.799011963991703,,,,,,,,,,
acc,1778674621.0,420.0,-5.955299774170651,0.10087596195489273,-9.800447904740853,,,,,,,,,,
acc,1778674621.0,420.0,-5.949210085375295,0.10113067477204594,-9.80045093162336,,,,,,,,,,
acc,1778674621.0,420.0,-5.944560105336377,0.09964374028865239,-9.797330227395214,,,,,,,,,,
acc,1778674621.0,420.0,-5.9392779420297215,0.09746038514645339,-9.79597722321362,,,,,,,,,,
acc,1778674621.0,420.0,-5.933688816694042,0.09703620314315625,-9.79286167783055,,,,,,,,,,
acc,1778674621.0,420.0,-5.92815048051071,0.10080448284385654,-9.795063439713962,,,,,,,,,,
acc,1778674621.0,420.0,-5.922662471951684,0.10070488342637415,-9.791991692368038,,,,,,,,,,
acc,1778674621.0,420.0,-5.917898771960003,0.10199055999682403,-9.792391038519357,,,,,,,,,,
acc,1778674621.0,420.0,-5.911793989452572,0.09978587898156721,-9.790018013928783,,,,,,,,,,
acc,1778674621.0,420.0,-5.904360311031158,0.09898560312065093,-9.789121912973961,,,,,,,,,,
acc,1778674621.0,420.0,-5.896639221695217,0.0999319321656925,-9.784364824412071,,,,,,,,,,
acc,1778674621.0,420.0,-5.890372656788991,0.0991303290994966,-9.78170977336037,,,,,,,,,,
acc,1778674621.0,420.0,-5.88625734057244,0.1021696465501535,-9.779788772673287,,,,,,,,,,
acc,1778674621.0,420.0,-5.881150020749888,0.10482637444224333,-9.778985626243122,,,,,,,,,,
acc,1778674621.0,420.0,-5.872929904797338,0.1067845220050688,-9.776379456706762,,,,,,,,,,
acc,1778674621.0,420.0,-5.865139457033305,0.10836991383630744,-9.77660119689199,,,,,,,,,,
acc,1778674621.0,420.0,-5.8595141056918445,0.10749163366863115,-9.773306753270125,,,,,,,,,,
acc,1778674621.0,420.0,-5.855004767104712,0.10559193450251489,-9.772881977258107,,,,,,,,,,
acc,1778674621.0,420.0,-5.848442101949003,0.10438392735395427,-9.771041195971035,,,,,,,,,,
acc,1778674621.0,420.0,-5.84261351091251,0.10460676280595482,-9.76577397110167,,,,,,,,,,
acc,1778674621.0,420.0,-5.836482923311329,0.1041176406849789,-9.762968381194732,,,,,,,,,,
acc,1778674621.0,420.0,-5.83111797784101,0.10363296328412254,-9.759158886018822,,,,,,,,,,
acc,1778674621.0,420.0,-5.825091851733092,0.10524699376283825,-9.75641340830159,,,,,,,,,,
acc,1778674621.0,420.0,-5.8180910858125925,0.1054619864114412,-9.755112744391482,,,,,,,,,,
acc,1778674621.0,420.0,-5.811508898591358,0.10532006361761888,-9.751658607524519,,,,,,,,,,
acc,1778674621.0,420.0,-5.806370895525015,0.102055726896079,-9.75001068592243,,,,,,,,,,
acc,1778674621.0,420.0,-5.80198951483682,0.09811112101590637,-9.748413242658192,,,,,,,,,,
acc,1778674621.0,420.0,-5.79729297749702,0.09384738945126071,-9.746475344719348,,,,,,,,,,
acc,1778674621.0,420.0,-5.789834882054534,0.08926744122836372,-9.74629438941296,,,,,,,,,,
acc,1778674621.0,420.0,-5.782799530214679,0.0871783769489557,-9.745440649283399,,,,,,,,,,
acc,1778674621.0,420.0,-5.775828109586437,0.08684762897117176,-9.745553069451416,,,,,,,,,,
acc,1778674621.0,420.0,-5.769629971854128,0.08861419009399493,-9.74158236219989,,,,,,,,,,
acc,1778674621.0,420.0,-5.761038892130964,0.08724099463397952,-9.743149708426111,,,,,,,,,,
acc,1778674621.0,420.0,-5.753235813369011,0.0872646485022801,-9.738810375626098,,,,,,,,,,
acc,1778674621.0,420.0,-5.744793709623009,0.08728808742462016,-9.737279207677792,,,,,,,,,,
acc,1778674621.0,420.0,-5.735753882161074,0.08660138071832893,-9.733738647923039,,,,,,,,,,
acc,1778674621.0,420.0,-5.7236370028989825,0.08872514130686979,-9.730833702191337,,,,,,,,,,
acc,1778674621.0,420.0,-5.712695125798488,0.09011967944160873,-9.729765484594953,,,,,,,,,,
acc,1778674621.0,420.0,-5.704976382640411,0.08905227080726315,-9.730055850590665,,,,,,,,,,
acc,1778674621.0,420.0,-5.697327780764931,0.08732013267361181,-9.730663045404883,,,,,,,,,,
acc,1778674621.0,420.0,-5.689038750152791,0.08141512762335701,-9.728886445954622,,,,,,,,,,
acc,1778674621.0,420.0,-5.678056310368172,0.07417941125616244,-9.729539761669784,,,,,,,,,,
acc,1778674621.0,420.0,-5.667528631301313,0.06736441770194747,-9.725324104332367,,,,,,,,,,
acc,1778674621.0,420.0,-5.658480989615942,0.06270565648009134,-9.726009791536459,,,,,,,,,,
acc,1778674621.0,420.0,-5.649515565097132,0.06121293366008554,-9.725304885982338,,,,,,,,,,
acc,1778674621.0,420.0,-5.642725914172946,0.06285747901463172,-9.726345718687533,,,,,,,,,,
acc,1778674621.0,420.0,-5.634613590831015,0.06345767102203635,-9.72805152239097,,,,,,,,,,
acc,1778674621.0,420.0,-5.626574985288965,0.06437187641618677,-9.728676930811398,,,,,,,,,,
acc,1778674621.0,420.0,-5.617544524166147,0.060059776244309235,-9.73075201569036,,,,,,,,,,
acc,1778674621.0,420.0,-5.6085961240877005,0.05404752803562967,-9.728264675120036,,,,,,,,,,
acc,1778674621.0,420.0,-5.603207713810914,0.051923541099073295,-9.729278611813472,,,,,,,,,,
acc,1778674621.0,420.0,-5.598578201396108,0.05155819689659285,-9.733726505734543,,,,,,,,,,
acc,1778674621.0,420.0,-5.595020158047974,0.05538477063253952,-9.735720210070388,,,,,,,,,,
acc,1778674621.0,420.0,-5.592204379765311,0.05743723908086834,-9.743943204531615,,,,,,,,,,
acc,1778674622.0,421.0,-5.585935523478152,0.05737675291955968,-9.749358237134974,,,,,,,,,,
acc,1778674622.0,421.0,-5.579368662290478,0.05280875098533053,-9.754724062591057,,,,,,,,,,
acc,1778674622.0,421.0,-5.571832075025693,0.043383719386800815,-9.760360595466098,,,,,,,,,,
acc,1778674622.0,421.0,-5.565393373817036,0.03894287407587238,-9.760053462973962,,,,,,,,,,
acc,1778674622.0,421.0,-5.559723114608544,0.039405419617825205,-9.767380899537933,,,,,,,,,,
acc,1778674622.0,421.0,-5.548531412911794,0.04437183645026418,-9.774357777622303,,,,,,,,,,
acc,1778674622.0,421.0,-5.534282213795229,0.04826371363234623,-9.781910199769634,,,,,,,,,,
acc,1778674622.0,421.0,-5.514944491973561,0.04967095947068929,-9.787335182830848,,,,,,,,,,
acc,1778674622.0,421.0,-5.493013752873317,0.04794171387747644,-9.794414706648052,,,,,,,,,,
acc,1778674622.0,421.0,-5.468478074326951,0.043778916857700405,-9.799335603398713,,,,,,,,,,
acc,1778674622.0,421.0,-5.441041651276965,0.03479091146904198,-9.805312172051805,,,,,,,,,,
acc,1778674622.0,421.0,-5.4117602432374605,0.027623914007756892,-9.809069138536922,,,,,,,,,,
acc,1778674622.0,421.0,-5.382070481111416,0.02609501295338648,-9.813501897585128,,,,,,,,,,
acc,1778674622.0,421.0,-5.351266152120733,0.025964376143686446,-9.818639802536264,,,,,,,,,,
acc,1778674622.0,421.0,-5.31900240453983,0.02583492644867212,-9.820926782457093,,,,,,,,,,
acc,1778674622.0,421.0,-5.285611976807622,0.025706653080868738,-9.824577351186438,,,,,,,,,,
acc,1778674622.0,421.0,-5.251495572442904,0.023485241805751355,-9.825745481375842,,,,,,,,,,
acc,1778674622.0,421.0,-5.216979255909309,0.023023349484855033,-9.826193063970303,,,,,,,,,,
acc,1778674622.0,421.0,-5.181037261214865,0.025724852396975653,-9.826281617546153,,,,,,,,,,
acc,1778674622.0,421.0,-5.142653134557381,0.0325549191098708,-9.824346051598468,,,,,,,,,,
acc,1778674622.0,421.0,-5.101139144378652,0.040032852700637375,-9.82100820913529,,,,,,,,,,
acc,1778674622.0,421.0,-5.056168761318661,0.0415148935053492,-9.817700698106364,,,,,,,,,,
acc,1778674622.0,421.0,-5.008483326730612,0.039859763207512146,-9.810589606657254,,,,,,,,,,
acc,1778674622.0,421.0,-4.962970548939021,0.039959005990390754,-9.8052824673594,,,,,,,,,,
acc,1778674622.0,421.0,-4.917871352028561,0.040412317801438565,-9.80279229658699,,,,,,,,,,
acc,1778674622.0,421.0,-4.87108767418814,0.03805727412612639,-9.795781185476288,,,,,,,,,,
acc,1778674622.0,421.0,-4.824019193437756,0.036788534552932795,-9.790253650567708,,,,,,,,,,
acc,1778674622.0,421.0,-4.774964659497075,0.03762561864840599,-9.783391974220537,,,,,,,,,,
acc,1778674622.0,421.0,-4.721457360226744,0.042288732273408236,-9.77485331818799,,,,,,,,,,
acc,1778674622.0,421.0,-4.666022518196973,0.04690947154257459,-9.766392254098976,,,,,,,,,,
acc,1778674622.0,421.0,-4.611765849400323,0.04939391797310778,-9.75733363858998,,,,,,,,,,
acc,1778674622.0,421.0,-4.5573277892389275,0.05114586434907085,-9.751090578339987,,,,,,,,,,
acc,1778674622.0,421.0,-4.501964549959238,0.05497618500418281,-9.741461078631632,,,,,,,,,,
acc,1778674622.0,421.0,-4.4467849366469805,0.06296030609646999,-9.731209150878785,,,,,,,,,,
acc,1778674622.0,421.0,-4.392106748081517,0.06668326729213903,-9.723854619984543,,,,,,,,,,
acc,1778674622.0,421.0,-4.337925427747078,0.0672486938338447,-9.716247453311732,,,,,,,,,,
acc,1778674622.0,421.0,-4.285620822355907,0.06745402049289811,-9.709312854478021,,,,,,,,,,
acc,1778674622.0,421.0,-4.232726621709987,0.06939681400353517,-9.70844019979048,,,,,,,,,,
acc,1778674622.0,421.0,-4.17754433613223,0.06887268776406995,-9.704416277083736,,,,,,,,,,
acc,1778674622.0,421.0,-4.122153566949707,0.06522962073938972,-9.703197653048528,,,,,,,,,,
acc,1778674622.0,421.0,-4.066911179542536,0.06126468790566276,-9.702735538899526,,,,,,,,,,
acc,1778674622.0,421.0,-4.011496349044122,0.06393816300850239,-9.700502787915266,,,,,,,,,,
acc,1778674622.0,421.0,-3.957614480791697,0.0718408453711343,-9.701378535479181,,,,,,,,,,
acc,1778674622.0,421.0,-3.9045772153586036,0.08208548592834718,-9.70260129586524,,,,,,,,,,
acc,1778674622.0,421.0,-3.851666936000909,0.08875835757256545,-9.70349346835832,,,,,,,,,,
acc,1778674622.0,421.0,-3.799947392274109,0.09501563013931123,-9.706826798874657,,,,,,,,,,
acc,1778674622.0,421.0,-3.7469584984819315,0.09706292928067256,-9.709455409769959,,,,,,,,,,
acc,1778674622.0,421.0,-3.6933862185707595,0.09351865542307893,-9.71376397243899,,,,,,,,,,
acc,1778674622.0,421.0,-3.639981289932256,0.09103598891854847,-9.717003973470119,,,,,,,,,,
acc,1778674622.0,421.0,-3.587381126649874,0.08822092097278801,-9.721243941301076,,,,,,,,,,
acc,1778674622.0,421.0,-3.535968890017876,0.08614136657173706,-9.725764847374117,,,,,,,,,,
acc,1778674622.0,421.0,-3.4829295399177864,0.08305130931965964,-9.732019498393763,,,,,,,,,,
acc,1778674622.0,421.0,-3.4289877947883407,0.07892442834807852,-9.737187912489821,,,,,,,,,,
acc,1778674622.0,421.0,-3.375181254865731,0.07483504891230272,-9.741918895274345,,,,,,,,,,
acc,1778674622.0,421.0,-3.3211892331949984,0.0742615046833842,-9.749375628784849,,,,,,,,,,
acc,1778674622.0,421.0,-3.2680073118754898,0.07681687592168067,-9.754350830973586,,,,,,,,,,
acc,1778674622.0,421.0,-3.2160185946344684,0.07796465524052655,-9.760700688083766,,,,,,,,,,
acc,1778674622.0,421.0,-3.164147335166806,0.08364557339131545,-9.765927948759638,,,,,,,,,,
acc,1778674622.0,421.0,-3.113457378699946,0.08994930653095247,-9.77110770859778,,,,,,,,,,
acc,1778674622.0,421.0,-3.0628730779883817,0.09864502209644549,-9.774820533975914,,,,,,,,,,
acc,1778674622.0,421.0,-3.0131034146452977,0.10342808227083009,-9.77920954394578,,,,,,,,,,
acc,1778674622.0,421.0,-2.9641409768615667,0.10397907103179724,-9.784268612099131,,,,,,,,,,
acc,1778674622.0,421.0,-2.915623467493678,0.10278572019940353,-9.787577869480712,,,,,,,,,,
acc,1778674622.0,421.0,-2.8678663108295326,0.10021884260145308,-9.795365120597987,,,,,,,,,,
acc,1778674622.0,421.0,-2.8205431300256607,0.09732032880013032,-9.798857515532319,,,,,,,,,,
acc,1778674622.0,421.0,-2.774359914118054,0.0965424577362593,-9.80515790513055,,,,,,,,,,
acc,1778674622.0,421.0,-2.7296257715023726,0.09683654970193248,-9.811436536580679,,,,,,,,,,
acc,1778674622.0,421.0,-2.6846237050145714,0.09641803657900291,-9.816593209746884,,,,,,,,,,
acc,1778674622.0,421.0,-2.64105997855119,0.09529339390806538,-9.823087394422657,,,,,,,,,,
acc,1778674622.0,421.0,-2.6003413869870835,0.092794600111129,-9.83016150037522,,,,,,,,,,
acc,1778674622.0,421.0,-2.562087114415903,0.09138341669272884,-9.838236226447822,,,,,,,,,,
acc,1778674622.0,421.0,-2.524854901962765,0.09346372225729316,-9.844178776276348,,,,,,,,,,
acc,1778674622.0,421.0,-2.4858667202089784,0.1003881691594651,-9.850102819696053,,,,,,,,,,
acc,1778674622.0,421.0,-2.447232829432595,0.10586532175014496,-9.852813832566154,,,,,,,,,,
acc,1778674622.0,421.0,-2.410369875411413,0.11196714097529567,-9.857913971958599,,,,,,,,,,
acc,1778674622.0,421.0,-2.3748713001785284,0.116629141219983,-9.863713201763371,,,,,,,,,,
acc,1778674622.0,421.0,-2.340760208883032,0.11638574095287761,-9.868359335313169,,,,,,,,,,
acc,1778674622.0,421.0,-2.306249157137855,0.11334031632009883,-9.873353714028168,,,,,,,,,,
acc,1778674622.0,421.0,-2.271696741212285,0.10826376578440097,-9.875533966318452,,,,,,,,,,
acc,1778674622.0,421.0,-2.2391976405313705,0.1094807537446817,-9.877339444582297,,,,,,,,,,
acc,1778674622.0,421.0,-2.2080587671494123,0.1127809772236497,-9.880441889318206,,,,,,,,,,
acc,1778674622.0,421.0,-2.1757829917299145,0.1216241891120659,-9.881847797749082,,,,,,,,,,
acc,1778674622.0,421.0,-2.1452203759955197,0.12967709979465514,-9.881075638233552,,,,,,,,,,
acc,1778674622.0,421.0,-2.1142255543252895,0.13172890188767863,-9.88524452951809,,,,,,,,,,
acc,1778674622.0,421.0,-2.083512386868387,0.12925398447290942,-9.884441503433193,,,,,,,,,,
acc,1778674622.0,421.0,-2.052368381559884,0.12470725343059741,-9.887514905142046,,,,,,,,,,
acc,1778674622.0,421.0,-2.0194485860210953,0.12332554275034233,-9.886371780427547,,,,,,,,,,
acc,1778674622.0,421.0,-1.9861179954768566,0.12788432763339141,-9.88073096894528,,,,,,,,,,
acc,1778674622.0,421.0,-1.955539559002991,0.1355253898011734,-9.88142431783542,,,,,,,,,,
acc,1778674622.0,421.0,-1.9269783256749835,0.13684960940305518,-9.880656006540226,,,,,,,,,,
acc,1778674622.0,421.0,-1.8993510704821754,0.13745186300476672,-9.879894676995589,,,,,,,,,,
acc,1778674622.0,421.0,-1.8681412317372457,0.13911353825288195,-9.875058150838571,,,,,,,,,,
acc,1778674622.0,421.0,-1.8358306301867762,0.14178952276419343,-9.873353784091668,,,,,,,,,,
acc,1778674622.0,421.0,-1.805907943065407,0.1430568193271186,-9.86957060161729,,,,,,,,,,
acc,1778674622.0,421.0,-1.7772865675708822,0.14257326710950813,-9.866141273943862,,,,,,,,,,
acc,1778674622.0,421.0,-1.7489252784573415,0.14209410899749605,-9.861429726854595,,,,,,,,,,
acc,1778674622.0,421.0,-1.7187629121882821,0.14335863774334864,-9.85640603246907,,,,,,,,,,
acc,1778674622.0,421.0,-1.6878097320006715,0.150859082723626,-9.852421894774245,,,,,,,,,,
acc,1778674622.0,421.0,-1.6574927893979707,0.15655203744528748,-9.847835017572985,,,,,,,,,,
acc,1778674622.0,421.0,-1.6291906827972837,0.15977948854695612,-9.843893262423885,,,,,,,,,,
acc,1778674622.0,421.0,-1.6025301231585356,0.160173375178991,-9.839632364773154,,,,,,,,,,
acc,1778674622.0,421.0,-1.5768217734183718,0.15846937896621413,-9.836865546114572,,,,,,,,,,
acc,1778674622.0,421.0,-1.550282135498043,0.1602595416529401,-9.832668510289833,,,,,,,,,,
acc,1778674622.0,421.0,-1.5236641995090099,0.15997462770199458,-9.827515707819764,,,,,,,,,,
acc,1778674622.0,421.0,-1.4965782117360042,0.15795297012132922,-9.822054758714726,,,,,,,,,,
acc,1778674622.0,421.0,-1.4693833872035826,0.15733405453001592,-9.815578539598564,,,,,,,,,,
acc,1778674622.0,421.0,-1.4414062857392256,0.16019942847394691,-9.808806199916761,,,,,,,,,,
acc,1778674622.0,421.0,-1.4133284451882888,0.16477809705222735,-9.800072095682667,,,,,,,,,,
acc,1778674622.0,421.0,-1.3851507900678617,0.17034456777348883,-9.791381865096707,,,,,,,,,,
acc,1778674622.0,421.0,-1.3575841509537372,0.17064244807557585,-9.783764509520791,,,,,,,,,,
acc,1778674622.0,421.0,-1.328173719230278,0.16955325058987894,-9.775222468216208,,,,,,,,,,
acc,1778674622.0,421.0,-1.2990305441503591,0.16918388342592752,-9.766793543977315,,,,,,,,,,
acc,1778674622.0,421.0,-1.2701521971160499,0.16846291097874225,-9.75805075840038,,,,,,,,,,
acc,1778674622.0,421.0,-1.2432756042803799,0.17087219369787007,-9.751481714175535,,,,,,,,,,
acc,1778674622.0,421.0,-1.2190925080614268,0.17780315179185022,-9.744617401986742,,,,,,,,,,
acc,1778674622.0,421.0,-1.1951291669683526,0.18119245286406643,-9.739909761203632,,,,,,,,,,
acc,1778674622.0,421.0,-1.1703186896483733,0.18103678607972945,-9.734570470213553,,,,,,,,,,
acc,1778674622.0,421.0,-1.1443492976443244,0.18123750472155323,-9.727504861967049,,,,,,,,,,
acc,1778674622.0,421.0,-1.1172315221735503,0.17969706672351562,-9.719119098054495,,,,,,,,,,
acc,1778674622.0,421.0,-1.090005207889661,0.1785255886712295,-9.710099595012213,,,,,,,,,,
acc,1778674622.0,421.0,-1.0626713320126602,0.17771972686199036,-9.701517024296903,,,,,,,,,,
acc,1778674622.0,421.0,-1.0362957754643602,0.17866052071189537,-9.693047938943606,,,,,,,,,,
acc,1778674622.0,421.0,-1.010514868091527,0.17959276543851926,-9.685720716830085,,,,,,,,,,
acc,1778674622.0,421.0,-0.9849682353745589,0.1815459387766579,-9.679773451294416,,,,,,,,,,
acc,1778674622.0,421.0,-0.9579144066583731,0.1841912959938292,-9.673915723739654,,,,,,,,,,
acc,1778674622.0,421.0,-0.9307514580360977,0.18574772007799722,-9.667756264388409,,,,,,,,,,
acc,1778674622.0,421.0,-0.90450978114307,0.18729000072216084,-9.663427603934363,,,,,,,,,,
acc,1778674623.0,422.0,-0.8799264312502675,0.19059309349149187,-9.660558143882291,,,,,,,,,,
acc,1778674623.0,422.0,-0.8548565410094295,0.1941856471026407,-9.656259399380694,,,,,,,,,,
acc,1778674623.0,422.0,-0.8310438643615556,0.1974260781836428,-9.65476845997911,,,,,,,,,,
acc,1778674623.0,422.0,-0.8053887676033088,0.19854275947865854,-9.652616630674988,,,,,,,,,,
acc,1778674623.0,422.0,-0.7796118404690291,0.1992943315634599,-9.647680119163496,,,,,,,,,,
acc,1778674623.0,422.0,-0.7550985518693208,0.1993291413750904,-9.646302635222693,,,,,,,,,,
acc,1778674623.0,422.0,-0.7308080188990862,0.19659490213563982,-9.641813965078004,,,,,,,,,,
acc,1778674623.0,422.0,-0.7063832555737464,0.194559938491783,-9.640489787687253,,,,,,,,,,
acc,1778674623.0,422.0,-0.6818609669358074,0.1963771030670786,-9.63807724542414,,,,,,,,,,
acc,1778674623.0,422.0,-0.657561515711923,0.19853272567824864,-9.635686626264828,,,,,,,,,,
acc,1778674623.0,422.0,-0.6338023534485274,0.1992843889415626,-9.634063157985091,,,,,,,,,,
acc,1778674623.0,422.0,-0.6092296939170341,0.2010586217849697,-9.63387430765343,,,,,,,,,,
acc,1778674623.0,422.0,-0.5838509203920158,0.1986636282923925,-9.632941746436705,,,,,,,,,,
acc,1778674623.0,422.0,-0.5597321764119856,0.20044350207329797,-9.633437524800415,,,,,,,,,,
acc,1778674623.0,422.0,-0.5368620028277954,0.20291713453014484,-9.635632636279723,,,,,,,,,,
acc,1778674623.0,422.0,-0.5159389863424112,0.2032739942929196,-9.638872703973442,,,,,,,,,,
acc,1778674623.0,422.0,-0.4959160328234375,0.20465701126955543,-9.643148223133402,,,,,,,,,,
acc,1778674623.0,422.0,-0.4746906597323423,0.20325871876387458,-9.648769260970226,,,,,,,,,,
acc,1778674623.0,422.0,-0.4536581645296633,0.20325750364305198,-9.650860545211424,,,,,,,,,,
acc,1778674623.0,422.0,-0.4328167945074641,0.2043211939717845,-9.656766461888866,,,,,,,,,,
acc,1778674623.0,422.0,-0.41145488025080584,0.2084989219900531,-9.661518321920601,,,,,,,,,,
acc,1778674623.0,422.0,-0.3906420555115538,0.213668095553265,-9.66420368632327,,,,,,,,,,
acc,1778674623.0,422.0,-0.3703733215505034,0.2177608869896212,-9.671053255534533,,,,,,,,,,
acc,1778674623.0,422.0,-0.34993381059286144,0.22007715398479086,-9.6743264129565,,,,,,,,,,
acc,1778674623.0,422.0,-0.3282956653779246,0.22027807828755733,-9.68001909206204,,,,,,,,,,
acc,1778674623.0,422.0,-0.3072091107420078,0.2239558421269993,-9.684595146600989,,,,,,,,,,
acc,1778674623.0,422.0,-0.2856042489851229,0.22483144380341136,-9.690194512309704,,,,,,,,,,
acc,1778674623.0,422.0,-0.2659350462641463,0.22601856526749703,-9.697837299353436,,,,,,,,,,
acc,1778674623.0,422.0,-0.24782895120536289,0.22928920273769499,-9.705730102752305,,,,,,,,,,
acc,1778674623.0,422.0,-0.23095228313348137,0.23079077770590842,-9.716710381109607,,,,,,,,,,
acc,1778674623.0,422.0,-0.21351904303450933,0.2333436111502884,-9.725496585710092,,,,,,,,,,
acc,1778674623.0,422.0,-0.19588925941571844,0.23480834315089266,-9.73523234890699,,,,,,,,,,
acc,1778674623.0,422.0,-0.17774524179445017,0.2376796301982526,-9.742749843980679,,,,,,,,,,
acc,1778674623.0,422.0,-0.16008556877361863,0.23843052192246048,-9.748885653440071,,,,,,,,,,
acc,1778674623.0,422.0,-0.14365126604113473,0.23672532487436737,-9.755640144228055,,,,,,,,,,
acc,1778674623.0,422.0,-0.12772127494148885,0.23503562318668667,-9.761978285167425,,,,,,,,,,
acc,1778674623.0,422.0,-0.11229101272541918,0.23474564695917974,-9.770317639729596,,,,,,,,,,
acc,1778674623.0,422.0,-0.09874030010883304,0.23726254196197272,-9.777871271707168,,,,,,,,,,
acc,1778674623.0,422.0,-0.08531272468396922,0.24217033654910897,-9.787521564139972,,,,,,,,,,
acc,1778674623.0,422.0,-0.07058730221806006,0.24671406591739228,-9.794315421219965,,,,,,,,,,
acc,1778674623.0,422.0,-0.05567622428050295,0.2515359732047019,-9.802005952912818,,,,,,,,,,
acc,1778674623.0,422.0,-0.041930045409303666,0.2556396248822772,-9.810372026679048,,,,,,,,,,
