sensor,time,t,ax,ay,az,wx,wy,wz,lat,lon,alt,v_kmh,satellites,x,y
acc,1778674515.0,314.0,0.0,0.320312,-9.835938,,,,,,,,,,
acc,1778674515.0,314.0,0.012208871163488563,0.320312,-9.811519632570818,,,,,,,,,,
acc,1778674515.0,314.0,0.01860456866596455,0.320312,-9.808961977336997,,,,,,,,,,
acc,1778674515.0,314.0,0.02254084333477607,0.3127959654303371,-9.814904078353745,,,,,,,,,,
acc,1778674515.0,314.0,0.025207737369876693,0.3077037222694969,-9.818929954363641,,,,,,,,,,
acc,1778674515.0,314.0,0.0271341588056641,0.30402535850544343,-9.821838031603011,,,,,,,,,,
acc,1778674515.0,314.0,0.02859101187035867,0.3060145905205539,-9.819266149522726,,,,,,,,,,
acc,1778674515.0,314.0,0.029731416374809295,0.3075717339315162,-9.817252915669323,,,,,,,,,,
acc,1778674515.0,314.0,0.030648445145628287,0.30882387324048144,-9.815634022233922,,,,,,,,,,
acc,1778674515.0,314.0,0.03140193070346985,0.30985270561274,-9.817452368257486,,,,,,,,,,
acc,1778674515.0,314.0,0.028818642552547,0.310713142237251,-9.818973093651529,,,,,,,,,,
acc,1778674515.0,314.0,0.02959799047183214,0.3084714906385446,-9.817291798881154,,,,,,,,,,
acc,1778674515.0,314.0,0.03026781359792693,0.3065448670545128,-9.815846783001708,,,,,,,,,,
acc,1778674515.0,314.0,0.030849728296931445,0.30487109596581763,-9.814591412818467,,,,,,,,,,
acc,1778674515.0,314.0,0.03378726790569332,0.30340335389893386,-9.813490569555073,,,,,,,,,,
acc,1778674515.0,314.0,0.034096238807536525,0.30210570662308583,-9.812517301639607,,,,,,,,,,
acc,1778674515.0,314.0,0.036535818248762855,0.30311449492010606,-9.81381501369581,,,,,,,,,,
acc,1778674515.0,314.0,0.03461496128809839,0.30401864730869793,-9.813129755307385,,,,,,,,,,
acc,1778674515.0,314.0,0.034837419095337,0.30483370284274847,-9.81251202355244,,,,,,,,,,
acc,1778674515.0,314.0,0.03503900011598457,0.3055722686340679,-9.809901945339716,,,,,,,,,,
acc,1778674515.0,314.0,0.03522252528233794,0.30624468019979645,-9.809485857082437,,,,,,,,,,
acc,1778674515.0,314.0,0.035390329147864504,0.30515229015596257,-9.810812656737697,,,,,,,,,,
acc,1778674515.0,314.0,0.0371831025792241,0.30414955888681283,-9.810227954429326,,,,,,,,,,
acc,1778674515.0,314.0,0.03725889535573486,0.3032258143919237,-9.80968931007353,,,,,,,,,,
acc,1778674515.0,314.0,0.03732894924947574,0.3038896437680124,-9.809343206030547,,,,,,,,,,
acc,1778674515.0,314.0,0.037393897089001975,0.30450508827064754,-9.809022328651109,,,,,,,,,,
acc,1778674515.0,314.0,0.03604024875697418,0.3050772939342087,-9.807168529465745,,,,,,,,,,
acc,1778674515.0,314.0,0.033547477325294756,0.30684164258273333,-9.80694488494445,,,,,,,,,,
acc,1778674515.0,314.0,0.0324100150255136,0.30729836913710723,-9.805278983101463,,,,,,,,,,
acc,1778674515.0,314.0,0.03134463049840441,0.3077261542199565,-9.805131125052162,,,,,,,,,,
acc,1778674515.0,314.0,0.031590845465804186,0.3081276930613702,-9.80362145562015,,,,,,,,,,
acc,1778674515.0,314.0,0.03182242032423698,0.3085053561309133,-9.803533413256,,,,,,,,,,
acc,1778674515.0,314.0,0.032040638572064656,0.30768381450485466,-9.803332712754159,,,,,,,,,,
acc,1778674515.0,314.0,0.03224663783623881,0.306908274548223,-9.804403915025098,,,,,,,,,,
acc,1778674515.0,314.0,0.03244143002046026,0.3072913709845854,-9.805305201433962,,,,,,,,,,
acc,1778674515.0,314.0,0.031537420168933475,0.30765420261363463,-9.805179130460395,,,,,,,,,,
acc,1778674515.0,314.0,0.031742008369651756,0.3089542543885653,-9.805059548288684,,,,,,,,,,
acc,1778674515.0,314.0,0.03193634391022011,0.3101891558323484,-9.804945958815292,,,,,,,,,,
acc,1778674515.0,314.0,0.03212119108084733,0.31045175328015034,-9.805749925643438,,,,,,,,,,
acc,1778674515.0,314.0,0.031306459044211754,0.3107018516924904,-9.80651562549687,,,,,,,,,,
acc,1778674515.0,314.0,0.031498921609964634,0.3109403384480982,-9.807245775169175,,,,,,,,,,
acc,1778674515.0,314.0,0.030733669521888697,0.31116801873697086,-9.808891833490465,,,,,,,,,,
acc,1778674515.0,314.0,0.030931864994742753,0.3113856248580245,-9.810465058683114,,,,,,,,,,
acc,1778674515.0,314.0,0.03112149285627401,0.3115938242825487,-9.81105919142331,,,,,,,,,,
acc,1778674515.0,314.0,0.03130310838422743,0.31259733867498524,-9.810824108307337,,,,,,,,,,
acc,1778674515.0,314.0,0.03147721977986743,0.31355938907552566,-9.810598738539262,,,,,,,,,,
acc,1778674515.0,314.0,0.03164429305168274,0.31448255040841083,-9.810382478917761,,,,,,,,,,
acc,1778674515.0,314.0,0.030959749135270463,0.31536918815624854,-9.810174775305265,,,,,,,,,,
acc,1778674515.0,314.0,0.03113195632797008,0.315474243870502,-9.809975117740821,,,,,,,,,,
acc,1778674515.0,314.0,0.030481553905055064,0.31557531327568006,-9.80978303612564,,,,,,,,,,
acc,1778674515.0,314.0,0.030657832391977204,0.31567262476269925,-9.80959809640457,,,,,,,,,,
acc,1778674515.0,314.0,0.03082768606002981,0.31497692123170806,-9.80934095438955,,,,,,,,,,
acc,1778674515.0,314.0,0.03021451330964515,0.31430608174627334,-9.809093002482802,,,,,,,,,,
acc,1778674515.0,314.0,0.030387769442759473,0.3136587601848277,-9.808853743138467,,,,,,,,,,
acc,1778674515.0,314.0,0.030555065612933,0.31378707837201203,-9.808698047598563,,,,,,,,,,
acc,1778674515.0,314.0,0.029974463107088303,0.31391106389688833,-9.808547609117008,,,,,,,,,,
acc,1778674515.0,314.0,0.030144652245707174,0.31403093904177964,-9.80840215798639,,,,,,,,,,
acc,1778674515.0,314.0,0.030309300033029004,0.31414691105692355,-9.808261442738553,,,,,,,,,,
acc,1778674515.0,314.0,0.030468681137883747,0.31354787920956834,-9.807413934429768,,,,,,,,,,
acc,1778674515.0,314.0,0.030623052259696863,0.3129676773194993,-9.807224612101953,,,,,,,,,,
acc,1778674515.0,314.0,0.030772653573310015,0.31240540269264105,-9.807041139515857,,,,,,,,,,
acc,1778674515.0,314.0,0.03160127908240906,0.31186020982754525,-9.807615161481392,,,,,,,,,,
acc,1778674515.0,314.0,0.03240514733647063,0.3106563663566009,-9.807429585721584,,,,,,,,,,
acc,1778674515.0,314.0,0.03251875127542907,0.3101545257395076,-9.807249464187782,,,,,,,,,,
acc,1778674515.0,314.0,0.033287668759267246,0.3103257798936849,-9.80714040643042,,,,,,,,,,
acc,1778674515.0,314.0,0.0333838746480292,0.31049215988482975,-9.80703445262865,,,,,,,,,,
acc,1778674515.0,314.0,0.032834091070117526,0.31065387828600277,-9.806931467412083,,,,,,,,,,
acc,1778674515.0,314.0,0.03229947435577825,0.31081113536634647,-9.806831323245689,,,,,,,,,,
acc,1778674515.0,314.0,0.03240836573889062,0.31096411996783274,-9.80673389987147,,,,,,,,,,
acc,1778674515.0,314.0,0.03251434290867986,0.31111301030812827,-9.807199054365451,,,,,,,,,,
acc,1778674515.0,314.0,0.03261752567872716,0.31125797471674127,-9.807097913969963,,,,,,,,,,
acc,1778674515.0,314.0,0.03271802730544656,0.31079000011970825,-9.807608589434034,,,,,,,,,,
acc,1778674515.0,314.0,0.03281595493021517,0.31033401107519815,-9.807442902258328,,,,,,,,,,
acc,1778674515.0,314.0,0.03291140998622753,0.30988953527087243,-9.807938071371781,,,,,,,,,,
acc,1778674515.0,314.0,0.03241335247732112,0.3094561252286039,-9.807770650839796,,,,,,,,,,
acc,1778674515.0,314.0,0.03192752376490908,0.30961883890242037,-9.80819283817707,,,,,,,,,,
acc,1778674515.0,314.0,0.031453461294623584,0.3097776118283261,-9.808082786600837,,,,,,,,,,
acc,1778674515.0,314.0,0.030990725914539524,0.3099325910870128,-9.807975364560178,,,,,,,,,,
acc,1778674515.0,314.0,0.03053890041481069,0.3100839164103348,-9.807870475201614,,,,,,,,,,
acc,1778674515.0,314.0,0.03066206621695645,0.31023172063427273,-9.808276074030008,,,,,,,,,,
acc,1778674515.0,314.0,0.030782403170323925,0.3103761301188348,-9.808672357141457,,,,,,,,,,
acc,1778674515.0,314.0,0.030900011499390735,0.3105172651376754,-9.809059654586429,,,,,,,,,,
acc,1778674515.0,314.0,0.031014986658388716,0.3101049871171429,-9.808888013496968,,,,,,,,,,
acc,1778674515.0,314.0,0.030581644945645626,0.31024759960617493,-9.808774742220965,,,,,,,,,,
acc,1778674515.0,314.0,0.03015776716521835,0.31087439214335916,-9.808663944724103,,,,,,,,,,
acc,1778674515.0,314.0,0.02974303438469604,0.3114876618728906,-9.808555537640574,,,,,,,,,,
acc,1778674515.0,314.0,0.029337142163513144,0.3120878589742393,-9.808449441392598,,,,,,,,,,
acc,1778674515.0,314.0,0.029468855694642405,0.3126754134007401,-9.808345579977752,,,,,,,,,,
acc,1778674515.0,314.0,0.02907267252605634,0.31325073600266723,-9.808243880770437,,,,,,,,,,
acc,1778674515.0,314.0,0.029205999229037598,0.3133449820918159,-9.808144274336424,,,,,,,,,,
acc,1778674515.0,314.0,0.02933661358209255,0.31343731087282417,-9.808046694259458,,,,,,,,,,
acc,1778674515.0,314.0,0.0294646006631923,0.3135277824856781,-9.807951076979027,,,,,,,,,,
acc,1778674515.0,314.0,0.02959004193110805,0.31407596843879865,-9.80785736163847,,,,,,,,,,
acc,1778674515.0,314.0,0.029713015415910732,0.3146133700299592,-9.807765489942662,,,,,,,,,,
acc,1778674515.0,314.0,0.029329785592534206,0.31468686930044176,-9.807675406024567,,,,,,,,,,
acc,1778674515.0,314.0,0.029454500943543075,0.3147589536298959,-9.807587056320033,,,,,,,,,,
acc,1778674515.0,314.0,0.02907943360971993,0.314829664938182,-9.807500389450249,,,,,,,,,,
acc,1778674515.0,314.0,0.029205762193252344,0.31489904345225667,-9.8074153561113,,,,,,,,,,
acc,1778674515.0,314.0,0.02932973426406074,0.3149671277908833,-9.807331908970339,,,,,,,,,,
acc,1778674515.0,314.0,0.029451417358321567,0.31454556054739635,-9.807201165618848,,,,,,,,,,
acc,1778674515.0,314.0,0.029570876365590446,0.31413169858316914,-9.807072811955004,,,,,,,,,,
acc,1778674515.0,314.0,0.029688173657435448,0.31372532581387064,-9.806946780963191,,,,,,,,,,
acc,1778674515.0,314.0,0.029803369208660477,0.3138062698740529,-9.806871009286734,,,,,,,,,,
acc,1778674515.0,314.0,0.029439136516486823,0.3143154380909359,-9.806796582115016,,,,,,,,,,
acc,1778674515.0,314.0,0.029556102076651037,0.3143883260856533,-9.806723462930378,,,,,,,,,,
acc,1778674515.0,314.0,0.02919875897962602,0.31445994527200033,-9.806651616578582,,,,,,,,,,
acc,1778674515.0,314.0,0.02884757820681343,0.31453032939700215,-9.806581009205564,,,,,,,,,,
acc,1778674515.0,314.0,0.028969800627936537,0.314599510971206,-9.806932285329111,,,,,,,,,,
acc,1778674515.0,314.0,0.0290899538652678,0.31466752132501735,-9.807277614468017,,,,,,,,,,
acc,1778674515.0,314.0,0.028745329314502726,0.31427162869735437,-9.807154376172265,,,,,,,,,,
acc,1778674515.0,314.0,0.028866958114184806,0.31434284189525236,-9.80749372185106,,,,,,,,,,
acc,1778674515.0,314.0,0.02898658227068151,0.31395454498170006,-9.807873305846824,,,,,,,,,,
acc,1778674515.0,314.0,0.029104251937715948,0.3140287929816627,-9.80820107024381,,,,,,,,,,
acc,1778674515.0,314.0,0.028765901065879212,0.3141018382733656,-9.808523525340238,,,,,,,,,,
acc,1778674515.0,314.0,0.028885060936247205,0.3141737103553109,-9.80843391875023,,,,,,,,,,
acc,1778674515.0,314.0,0.029002322931207476,0.31424443772086463,-9.808345739336529,,,,,,,,,,
acc,1778674515.0,314.0,0.02911773269558186,0.3143140479010099,-9.808258952774851,,,,,,,,,,
acc,1778674515.0,314.0,0.02923133434592505,0.31438256750494514,-9.80857515359171,,,,,,,,,,
acc,1778674515.0,314.0,0.02934317053446976,0.3140056428696416,-9.808442049626105,,,,,,,,,,
acc,1778674515.0,314.0,0.029453282509901545,0.3136345293980341,-9.808310997765512,,,,,,,,,,
acc,1778674515.0,314.0,0.029561710175144928,0.3132690926041797,-9.808666825670112,,,,,,,,,,
acc,1778674515.0,314.0,0.02966849214233048,0.31290920235253433,-9.808534287151291,,,,,,,,,,
acc,1778674515.0,314.0,0.029773665785101766,0.31299208717118565,-9.808447478105563,,,,,,,,,,
acc,1778674515.0,314.0,0.029441572164976653,0.3130737330245336,-9.808361966684629,,,,,,,,,,
acc,1778674515.0,314.0,0.029548478190225765,0.3131541675296626,-9.808277723963858,,,,,,,,,,
acc,1778674515.0,314.0,0.02965380976262349,0.3132334174398573,-9.808194721923316,,,,,,,,,,
acc,1778674515.0,314.0,0.029326667610035384,0.3133115086785391,-9.808112933412223,,,,,,,,,,
acc,1778674515.0,314.0,0.029433689915717536,0.3133884663716224,-9.808032332115067,,,,,,,,,,
acc,1778674516.0,315.0,0.029539169715723557,0.3130363839214619,-9.807910101614617,,,,,,,,,,
acc,1778674516.0,315.0,0.029643139860420126,0.3126893405701641,-9.807789620510013,,,,,,,,,,
acc,1778674516.0,315.0,0.02974563221406447,0.31277228736992707,-9.807713355441711,,,,,,,,,,
acc,1778674516.0,315.0,0.029846677692124943,0.31285406321697923,-9.80801948040028,,,,,,,,,,
acc,1778674516.0,315.0,0.029523999574407177,0.3125123856696059,-9.8083635413436,,,,,,,,,,
acc,1778674516.0,315.0,0.029205816115258472,0.3125964429891915,-9.807818741705276,,,,,,,,,,
acc,1778674516.0,315.0,0.02931170862471175,0.3126793371095994,-9.808120848368423,,,,,,,,,,
acc,1778674516.0,315.0,0.0294161452291227,0.31276109152741166,-9.807581983929076,,,,,,,,,,
acc,1778674516.0,315.0,0.029519155085326584,0.3128417290670021,-9.807509354971538,,,,,,,,,,
acc,1778674516.0,315.0,0.0296207665225805,0.31250534290286164,-9.807853651644471,,,,,,,,,,
acc,1778674516.0,315.0,0.02972100707235519,0.3125882286403229,-9.807778559074109,,,,,,,,,,
acc,1778674516.0,315.0,0.029819903496855368,0.31267000296314335,-9.808076693120999,,,,,,,,,,
acc,1778674516.0,315.0,0.029917481816331186,0.31275068738664424,-9.807999664984155,,,,,,,,,,
acc,1778674516.0,315.0,0.030013767335239867,0.31283030283428015,-9.808293836533757,,,,,,,,,,
acc,1778674516.0,315.0,0.030108784667313374,0.31290886965836695,-9.808214942708831,,,,,,,,,,
acc,1778674516.0,315.0,0.029793434959093822,0.31298640765994823,-9.808137081988445,,,,,,,,,,
acc,1778674516.0,315.0,0.029890261108278936,0.31306293610784247,-9.808427510530834,,,,,,,,,,
acc,1778674516.0,315.0,0.029985833668272763,0.3127314347665329,-9.807940792365649,,,,,,,,,,
acc,1778674516.0,315.0,0.03008017574019389,0.3128102308357454,-9.807866370013567,,,,,,,,,,
acc,1778674516.0,315.0,0.030173309818326544,0.31248297738260283,-9.807752398610429,,,,,,,,,,
acc,1778674516.0,315.0,0.030265257810538137,0.3121598915845354,-9.807639878661789,,,,,,,,,,
acc,1778674516.0,315.0,0.03035604105788119,0.31224402214772673,-9.807569094357254,,,,,,,,,,
acc,1778674516.0,315.0,0.0304456803534172,0.31232709258900565,-9.807861189545601,,,,,,,,,,
acc,1778674516.0,315.0,0.030534195960298008,0.3124091216866206,-9.80814962312497,,,,,,,,,,
acc,1778674516.0,315.0,0.03062160762913837,0.3128504939092833,-9.80807409328852,,,,,,,,,,
acc,1778674516.0,315.0,0.030308414715363403,0.3132863891850946,-9.807560020623226,,,,,,,,,,
acc,1778674516.0,315.0,0.030397753268161177,0.3137169023155315,-9.807849644534619,,,,,,,,,,
acc,1778674516.0,315.0,0.03008816793029341,0.3133862437686908,-9.807737873476862,,,,,,,,,,
acc,1778674516.0,315.0,0.03017937309336396,0.31305962841299534,-9.807627469121266,,,,,,,,,,
acc,1778674516.0,315.0,0.03026946832847072,0.31273698782697834,-9.808746647746132,,,,,,,,,,
acc,1778674516.0,315.0,0.030358472279702797,0.313169550150275,-9.808666014073145,,,,,,,,,,
acc,1778674516.0,315.0,0.0304464031434957,0.31245243069955875,-9.807836525489858,,,,,,,,,,
acc,1778674516.0,315.0,0.030533278682586155,0.3128861891158403,-9.808119887256659,,,,,,,,,,
acc,1778674516.0,315.0,0.030225975635907298,0.313314765020082,-9.808793004042508,,,,,,,,,,
acc,1778674516.0,315.0,0.029922327992392812,0.31338505866215866,-9.808280853105579,,,,,,,,,,
acc,1778674516.0,315.0,0.030013977675844735,0.31380706285430165,-9.807774767722268,,,,,,,,,,
acc,1778674516.0,315.0,0.029713543713126928,0.3138721759847577,-9.808056676090679,,,,,,,,,,
acc,1778674516.0,315.0,0.02941663761941248,0.31428782316062237,-9.80798397548694,,,,,,,,,,
acc,1778674516.0,315.0,0.029512851165240973,0.3146986099085709,-9.807483504538068,,,,,,,,,,
acc,1778674516.0,315.0,0.029607944244517282,0.31475450960792734,-9.807416759134219,,,,,,,,,,
acc,1778674516.0,315.0,0.029313588579630165,0.31515928411003136,-9.808088656839644,,,,,,,,,,
acc,1778674516.0,315.0,0.029410347488915405,0.3155593825440143,-9.80836507849978,,,,,,,,,,
acc,1778674516.0,315.0,0.02911889814892552,0.3159548770777385,-9.808638319398272,,,,,,,,,,
acc,1778674516.0,315.0,0.02883078952065365,0.3163458382911153,-9.808908428297661,,,,,,,,,,
acc,1778674516.0,315.0,0.02854597072835814,0.3167323352221384,-9.809175452895202,,,,,,,,,,
acc,1778674516.0,315.0,0.02826439199982794,0.31711443541131906,-9.808668801504826,,,,,,,,,,
acc,1778674516.0,315.0,0.027986004634768757,0.3174922049445855,-9.808591111375243,,,,,,,,,,
acc,1778674516.0,315.0,0.02809493756562892,0.31786570849470874,-9.808514298565704,,,,,,,,,,
acc,1778674516.0,315.0,0.028202644776858885,0.3178897334546711,-9.808438350058335,,,,,,,,,,
acc,1778674516.0,315.0,0.028309144340690044,0.3179134890391657,-9.808363253109707,,,,,,,,,,
acc,1778674516.0,315.0,0.028414453951035656,0.3179369791949623,-9.808633310287298,,,,,,,,,,
acc,1778674516.0,315.0,0.028518590934015063,0.31796020778679107,-9.808900360365767,,,,,,,,,,
acc,1778674516.0,315.0,0.028621572258125512,0.3183265698489785,-9.808821055609956,,,,,,,,,,
acc,1778674516.0,315.0,0.028342380024022888,0.31834593694294944,-9.809085570788158,,,,,,,,,,
acc,1778674516.0,315.0,0.028066265732240248,0.3187075935242285,-9.809347169830588,,,,,,,,,,
acc,1778674516.0,315.0,0.028173252392617105,0.318343137387028,-9.809225817698449,,,,,,,,,,
acc,1778674516.0,315.0,0.027899470244811424,0.3183622704082143,-9.809143752614338,,,,,,,,,,
acc,1778674516.0,315.0,0.027628677776630767,0.31838119449830676,-9.809062583674521,,,,,,,,,,
acc,1778674516.0,315.0,0.027739517418005098,0.3180212284095718,-9.80894443189175,,,,,,,,,,
acc,1778674516.0,315.0,0.02784915406930397,0.3176651691868902,-9.809243635281945,,,,,,,,,,
acc,1778674516.0,315.0,0.027957604331057692,0.31731296291789,-9.809124006265176,,,,,,,,,,
acc,1778674516.0,315.0,0.02806488448194323,0.3169645567354598,-9.809420793741173,,,,,,,,,,
acc,1778674516.0,315.0,0.02817101048718412,0.3166198987904687,-9.80929972245024,,,,,,,,,,
acc,1778674516.0,315.0,0.028275998006684122,0.3162789382253513,-9.809179949973277,,,,,,,,,,
acc,1778674516.0,315.0,0.02800371273709981,0.31631777481433043,-9.809099071825063,,,,,,,,,,
acc,1778674516.0,315.0,0.02811008743760095,0.31598044192050784,-9.80864330133997,,,,,,,,,,
acc,1778674516.0,315.0,0.028215330380763907,0.3156466980283576,-9.808530213268641,,,,,,,,,,
acc,1778674516.0,315.0,0.02831945659267016,0.3153164954875312,-9.808418325173104,,,,,,,,,,
acc,1778674516.0,315.0,0.028797106764798023,0.31498978752853285,-9.80830762120566,,,,,,,,,,
acc,1778674516.0,315.0,0.028895454215110684,0.31466652824063857,-9.807861257857871,,,,,,,,,,
acc,1778674516.0,315.0,0.028992766164904232,0.3143466725504925,-9.807756099803631,,,,,,,,,,
acc,1778674516.0,315.0,0.02908905607871798,0.31440371769170095,-9.80768939842695,,,,,,,,,,
acc,1778674516.0,315.0,0.028811140421670843,0.314460165180244,-9.807212871793768,,,,,,,,,,
acc,1778674516.0,315.0,0.028536129392878078,0.3145160227093301,-9.807151477636744,,,,,,,,,,
acc,1778674516.0,315.0,0.02863651260645018,0.31457129783553534,-9.807090723610685,,,,,,,,,,
acc,1778674516.0,315.0,0.028735851619732015,0.3146259979821122,-9.807030601556539,,,,,,,,,,
acc,1778674516.0,315.0,0.028834159677537267,0.3143082483800241,-9.806599221396093,,,,,,,,,,
acc,1778674516.0,315.0,0.028931449794042153,0.31436535776735886,-9.806878300175043,,,,,,,,,,
acc,1778674516.0,315.0,0.02902773475827512,0.31442187712939107,-9.806820348897242,,,,,,,,,,
acc,1778674516.0,315.0,0.028752067143512066,0.3144778138442578,-9.807096870420324,,,,,,,,,,
acc,1778674516.0,315.0,0.02884989938183349,0.3148667843204858,-9.80703693833844,,,,,,,,,,
acc,1778674516.0,315.0,0.0289467274040553,0.31491841419415556,-9.80731096938704,,,,,,,,,,
acc,1778674516.0,315.0,0.028672474377473903,0.3153026068778972,-9.807249101810685,,,,,,,,,,
acc,1778674516.0,315.0,0.028770834645822647,0.315682872286505,-9.807187866653958,,,,,,,,,,
acc,1778674516.0,315.0,0.028868191494734206,0.31572666492532525,-9.807127256185915,,,,,,,,,,
acc,1778674516.0,315.0,0.028964557136810756,0.31577001170375246,-9.807067262803479,,,,,,,,,,
acc,1778674516.0,315.0,0.029059943583930284,0.3154439151547985,-9.806970980630842,,,,,,,,,,
acc,1778674516.0,315.0,0.029154362651782298,0.3154898697079612,-9.807244428295354,,,,,,,,,,
acc,1778674516.0,315.0,0.029247825964275432,0.31553535908696523,-9.80718345579532,,,,,,,,,,
acc,1778674516.0,315.0,0.029340344957821125,0.3159118166729465,-9.80712309933901,,,,,,,,,,
acc,1778674516.0,315.0,0.029431930885497382,0.31628447763607975,-9.807394559228966,,,,,,,,,,
acc,1778674516.0,315.0,0.029522594821096503,0.3166533870353627,-9.807332294742503,,,,,,,,,,
acc,1778674516.0,315.0,0.02961234766306051,0.317018589216297,-9.807601435563665,,,,,,,,,,
acc,1778674516.0,315.0,0.029701200138307873,0.31738012782645886,-9.807537304888749,,,,,,,,,,
acc,1778674516.0,315.0,0.029789162805954998,0.31740767838852574,-9.807804183888614,,,,,,,,,,
acc,1778674516.0,315.0,0.029876246060935842,0.3174349535120015,-9.808068394747787,,,,,,,,,,
acc,1778674516.0,315.0,0.030329090954770863,0.3174619564023365,-9.808329968517082,,,,,,,,,,
acc,1778674516.0,315.0,0.03041100688090586,0.31748869021573345,-9.80858893577026,,,,,,,,,,
acc,1778674516.0,315.0,0.03085831399377975,0.3175151580601915,-9.808515738266161,,,,,,,,,,
acc,1778674516.0,315.0,0.030935178212099755,0.3178707655750004,-9.808443267841247,,,,,,,,,,
acc,1778674516.0,315.0,0.03101128011176088,0.31789362599720594,-9.808371516158529,,,,,,,,,,
acc,1778674516.0,315.0,0.031086628402522614,0.31791626004112533,-9.808300475006124,,,,,,,,,,
acc,1778674516.0,315.0,0.031161231664203006,0.3179386702840696,-9.808230136294664,,,,,,,,,,
acc,1778674516.0,315.0,0.030869895835785435,0.3179608592651198,-9.808160492054771,,,,,,,,,,
acc,1778674516.0,315.0,0.030946446905039234,0.31798282948590967,-9.808091534434602,,,,,,,,,,
acc,1778674516.0,315.0,0.031022244334282315,0.3176397531716674,-9.807986774541442,,,,,,,,,,
acc,1778674516.0,315.0,0.031097296586920457,0.31766469897256117,-9.807919507620179,,,,,,,,,,
acc,1778674516.0,315.0,0.031171612003639323,0.31732492818782687,-9.807816455799706,,,,,,,,,,
acc,1778674516.0,315.0,0.031245198804857755,0.3173527860143075,-9.807750842209138,,,,,,,,,,
acc,1778674516.0,315.0,0.03095393878608232,0.31738037107550093,-9.807685871063159,,,,,,,,,,
acc,1778674516.0,315.0,0.03066552686524848,0.3174076863950514,-9.80722117353138,,,,,,,,,,
acc,1778674516.0,315.0,0.03037993156965749,0.3174347349537192,-9.807161194673967,,,,,,,,,,
acc,1778674516.0,315.0,0.03046075377805099,0.3174615196902183,-9.807101800829324,,,,,,,,,,
acc,1778674516.0,315.0,0.03017731547533763,0.3174880435020323,-9.807042985572423,,,,,,,,,,
acc,1778674516.0,315.0,0.03025995231871507,0.3171509918580634,-9.80662142517975,,,,,,,,,,
acc,1778674516.0,315.0,0.030341786098054508,0.31681721567868343,-9.806203961506863,,,,,,,,,,
acc,1778674516.0,315.0,0.030785849253921426,0.3164866793093198,-9.806117264783278,,,,,,,,,,
acc,1778674516.0,315.0,0.0308627306952589,0.3161593475851447,-9.806031408609368,,,,,,,,,,
acc,1778674516.0,315.0,0.030938867597821256,0.31619790834959016,-9.80598265428336,,,,,,,,,,
acc,1778674516.0,315.0,0.031014267997278827,0.31623609610013853,-9.8059343715777,,,,,,,,,,
acc,1778674516.0,315.0,0.03145139043828538,0.3162739148515413,-9.805886555416336,,,,,,,,,,
acc,1778674516.0,315.0,0.03152197973387546,0.3159490639367586,-9.805802972183765,,,,,,,,,,
acc,1778674516.0,315.0,0.03159188840367099,0.31562734525201347,-9.805720194865229,,,,,,,,,,
acc,1778674516.0,315.0,0.03166112371442424,0.3156707640849273,-9.805674416875576,,,,,,,,,,
acc,1778674516.0,315.0,0.032091611549224706,0.31535185569011265,-9.805592890274244,,,,,,,,,,
acc,1778674516.0,315.0,0.03215616955727019,0.31503601276549587,-9.805512147337973,,,,,,,,,,
acc,1778674516.0,315.0,0.03258177487503972,0.31472320283405464,-9.80543217976425,,,,,,,,,,
acc,1778674517.0,316.0,0.03264175216545375,0.3147749295725897,-9.805389131080892,,,,,,,,,,
acc,1778674517.0,316.0,0.032701154615113304,0.314826160546191,-9.805346494989324,,,,,,,,,,
acc,1778674517.0,316.0,0.03275998826931957,0.3148769009685605,-9.805304267150534,,,,,,,,,,
acc,1778674517.0,316.0,0.03281825909551381,0.31492715598625076,-9.805262443281391,,,,,,,,,,
acc,1778674517.0,316.0,0.032514904200485174,0.31497693067983773,-9.805221019153675,,,,,,,,,,
acc,1778674517.0,316.0,0.03221444610113018,0.3150262300650667,-9.805179990593118,,,,,,,,,,
acc,1778674517.0,316.0,0.03227770262030757,0.31507505909397165,-9.805464127766864,,,,,,,,,,
acc,1778674517.0,316.0,0.032340356141288336,0.31512342265596893,-9.805420878712853,,,,,,,,,,
acc,1778674517.0,316.0,0.03240241291842751,0.3151713255789259,-9.805702624404004,,,,,,,,,,
acc,1778674517.0,316.0,0.032463879127698284,0.31485824080786773,-9.805621147789564,,,,,,,,,,
acc,1778674517.0,316.0,0.032524760868014334,0.31490856337050455,-9.805900885423839,,,,,,,,,,
acc,1778674517.0,316.0,0.0322247335638527,0.3152827164198367,-9.806177965232285,,,,,,,,,,
acc,1778674517.0,316.0,0.03192755460789977,0.3153290968574152,-9.806452414547556,,,,,,,,,,
acc,1778674517.0,316.0,0.031309069897369105,0.31569917140878595,-9.806400126275038,,,,,,,,,,
acc,1778674517.0,316.0,0.031020487825914534,0.31606573801564675,-9.806348333644165,,,,,,,,,,
acc,1778674517.0,316.0,0.030734639179404125,0.3164288325346476,-9.806620997508317,,,,,,,,,,
acc,1778674517.0,316.0,0.030811355056851848,0.31646460624564665,-9.806891080625734,,,,,,,,,,
acc,1778674517.0,316.0,0.030887345348727373,0.3165000416057146,-9.806834805411695,,,,,,,,,,
acc,1778674517.0,316.0,0.03096261742875277,0.3161754598263203,-9.80674309569404,,,,,,,,,,
acc,1778674517.0,316.0,0.03103717858205002,0.31621353991493156,-9.806688209938601,,,,,,,,,,
acc,1778674517.0,316.0,0.031111036006552892,0.3162512605931306,-9.806238371768066,,,,,,,,,,
acc,1778674517.0,316.0,0.03118419681438853,0.3166121226846781,-9.806511652944494,,,,,,,,,,
acc,1778674517.0,316.0,0.031256668033229566,0.3169695834123771,-9.806458934262158,,,,,,,,,,
acc,1778674517.0,316.0,0.03168773371373602,0.31700032487511787,-9.806730064319485,,,,,,,,,,
acc,1778674517.0,316.0,0.03175554282046555,0.31703077695309817,-9.806675360472116,,,,,,,,,,
acc,1778674517.0,316.0,0.03182271400729046,0.31738415493069494,-9.806944383635932,,,,,,,,,,
acc,1778674517.0,316.0,0.03224829994123812,0.31741106612204456,-9.806887733098604,,,,,,,,,,
acc,1778674517.0,316.0,0.03266988703830403,0.31743772445385177,-9.80683161485391,,,,,,,,,,
acc,1778674517.0,316.0,0.03272861589009541,0.317464132451265,-9.807099035750518,,,,,,,,,,
acc,1778674517.0,316.0,0.03278679357293759,0.31749029261021816,-9.807363946908042,,,,,,,,,,
acc,1778674517.0,316.0,0.03248567702330639,0.3175162073978716,-9.807626373310212,,,,,,,,,,
acc,1778674517.0,316.0,0.03218738322459714,0.31754187925304317,-9.80716896192136,,,,,,,,,,
acc,1778674517.0,316.0,0.03189188416340798,0.31756731058663107,-9.806715836054956,,,,,,,,,,
acc,1778674517.0,316.0,0.0319576978501628,0.3172339580778016,-9.806302815158142,,,,,,,,,,
acc,1778674517.0,316.0,0.03166441504489001,0.3169037253989848,-9.805893659703933,,,,,,,,,,
acc,1778674517.0,316.0,0.031373875614738395,0.3162181651494109,-9.805810908254163,,,,,,,,,,
acc,1778674517.0,316.0,0.03144440626855981,0.31553901433331527,-9.805406410230775,,,,,,,,,,
acc,1778674517.0,316.0,0.03115598573093495,0.3148662098030387,-9.80500569201595,,,,,,,,,,
acc,1778674517.0,316.0,0.030870258977882977,0.3145579207134273,-9.804608716421376,,,,,,,,,,
acc,1778674517.0,316.0,0.030587199542188102,0.314252509565174,-9.804537803462479,,,,,,,,,,
acc,1778674517.0,316.0,0.03030678125175884,0.3139499481195151,-9.804145247888746,,,,,,,,,,
acc,1778674517.0,316.0,0.029706725488906755,0.3140082650107539,-9.80372054041565,,,,,,,,,,
acc,1778674517.0,316.0,0.029112263424134654,0.3143882495695725,-9.80329979205023,,,,,,,,,,
acc,1778674517.0,316.0,0.02852334038431257,0.31444253193111094,-9.803276711067614,,,,,,,,,,
acc,1778674517.0,316.0,0.028262005970151015,0.3144963087320941,-9.803253845050486,,,,,,,,,,
acc,1778674517.0,316.0,0.02800310443086411,0.3145495849016225,-9.803231191902983,,,,,,,,,,
acc,1778674517.0,316.0,0.027746612075239773,0.3146023653148198,-9.803530767483057,,,,,,,,,,
acc,1778674517.0,316.0,0.027492505470752767,0.3149766265669144,-9.803827556575483,,,,,,,,,,
acc,1778674517.0,316.0,0.027240761440013195,0.3153474080991069,-9.804121586250774,,,,,,,,,,
acc,1778674517.0,316.0,0.027348991480229793,0.3157147436776042,-9.804412883285528,,,,,,,,,,
acc,1778674517.0,316.0,0.027098630169467414,0.31607866670300916,-9.804701474166412,,,,,,,,,,
acc,1778674517.0,316.0,0.026850593799097117,0.3164392102152665,-9.804987385094098,,,,,,,,,,
acc,1778674517.0,316.0,0.026962351351901406,0.3167964068985187,-9.805270641987102,,,,,,,,,,
acc,1778674517.0,316.0,0.02707307188513729,0.3171502890858732,-9.80590871602759,,,,,,,,,,
acc,1778674517.0,316.0,0.027182765406628086,0.3171792173771086,-9.806183471024468,,,,,,,,,,
acc,1778674517.0,316.0,0.027648807150494767,0.31720787743665213,-9.806813034596358,,,,,,,,,,
acc,1778674517.0,316.0,0.02811052917995468,0.3172362718477345,-9.8070794500563,,,,,,,,,,
acc,1778674517.0,316.0,0.02856797305443451,0.317264403166126,-9.807343397003686,,,,,,,,,,
acc,1778674517.0,316.0,0.028663942588232502,0.317613790238039,-9.807604899164195,,,,,,,,,,
acc,1778674517.0,316.0,0.028759023516752528,0.31763846295134973,-9.807863980012534,,,,,,,,,,
acc,1778674517.0,316.0,0.029210380153809376,0.31798435024451666,-9.807799219822085,,,,,,,,,,
acc,1778674517.0,316.0,0.0296575603578699,0.31800562974941543,-9.807735058861986,,,,,,,,,,
acc,1778674517.0,316.0,0.030100604117407108,0.3180267124175788,-9.807278709200252,,,,,,,,,,
acc,1778674517.0,316.0,0.03053955100189088,0.3180476001319585,-9.806826579454734,,,,,,,,,,
acc,1778674517.0,316.0,0.030974440167125226,0.3180682947558215,-9.80677132817398,,,,,,,,,,
acc,1778674517.0,316.0,0.031048345725859367,0.31808879813299984,-9.806716587490776,,,,,,,,,,
acc,1778674517.0,316.0,0.031121568502349567,0.3181091120881358,-9.80698359089318,,,,,,,,,,
acc,1778674517.0,316.0,0.031194115005319722,0.31812923842692337,-9.806926921897448,,,,,,,,,,
acc,1778674517.0,316.0,0.03126599167604835,0.3181491789363453,-9.806478234979494,,,,,,,,,,
acc,1778674517.0,316.0,0.030980390168533663,0.31849007959500325,-9.806033689665876,,,,,,,,,,
acc,1778674517.0,316.0,0.030697424164219698,0.31850672049379036,-9.80559324657359,,,,,,,,,,
acc,1778674517.0,316.0,0.03041706862173853,0.3185232078743792,-9.805156866725174,,,,,,,,,,
acc,1778674517.0,316.0,0.030139298757055937,0.31853954319428984,-9.805437961242559,,,,,,,,,,
acc,1778674517.0,316.0,0.030220773949253238,0.3185557278960942,-9.805395437481877,,,,,,,,,,
acc,1778674517.0,316.0,0.029944845425837315,0.3182151107288896,-9.805317642262695,,,,,,,,,,
acc,1778674517.0,316.0,0.029671459753088936,0.3178776325579014,-9.805632855495668,,,,,,,,,,
acc,1778674517.0,316.0,0.029400592861177147,0.3178998555812477,-9.805588563538715,,,,,,,,,,
acc,1778674517.0,316.0,0.029132220925221695,0.3179218739082427,-9.805544679555142,,,,,,,,,,
acc,1778674517.0,316.0,0.02886632036234876,0.3179436894737215,-9.805501199688697,,,,,,,,,,
acc,1778674517.0,316.0,0.028602867828793316,0.31796530419290153,-9.805458120122225,,,,,,,,,,
acc,1778674517.0,316.0,0.028341840217047106,0.31798671996161704,-9.805415437077201,,,,,,,,,,
acc,1778674517.0,316.0,0.028083214653051285,0.3176514892621752,-9.805337503698883,,,,,,,,,,
acc,1778674517.0,316.0,0.027506186485431187,0.3173193427489265,-9.805260287322469,,,,,,,,,,
acc,1778674517.0,316.0,0.026934465905749615,0.31699025136699804,-9.80518378119337,,,,,,,,,,
acc,1778674517.0,316.0,0.026688737723872844,0.31666418635353305,-9.804787243846178,,,,,,,,,,
acc,1778674517.0,316.0,0.026445268806442556,0.316697463657566,-9.80475069675046,,,,,,,,,,
acc,1778674517.0,316.0,0.026560357270914818,0.31637411570799023,-9.805427133448092,,,,,,,,,,
acc,1778674517.0,316.0,0.026318093281213213,0.3160537394299393,-9.804707783866961,,,,,,,,,,
acc,1778674517.0,316.0,0.026078055322887667,0.31609257750845565,-9.80499262354887,,,,,,,,,,
acc,1778674517.0,316.0,0.025840222501920175,0.31577481192371354,-9.804918590524387,,,,,,,,,,
acc,1778674517.0,316.0,0.02596079771411625,0.3154599649582177,-9.804845237479803,,,,,,,,,,
acc,1778674517.0,316.0,0.0264364755108518,0.3151480092482743,-9.805164386120337,,,,,,,,,,
acc,1778674517.0,316.0,0.026907785960255892,0.31483891770173456,-9.805088801175009,,,,,,,,,,
acc,1778674517.0,316.0,0.027374769963764797,0.31488881971087535,-9.805726231619627,,,,,,,,,,
acc,1778674517.0,316.0,0.027837468018117758,0.3149382637225851,-9.805289389821464,,,,,,,,,,
acc,1778674517.0,316.0,0.02829592021993569,0.31498725402159716,-9.805568801482073,,,,,,,,,,
acc,1778674517.0,316.0,0.02839406470180995,0.3153562889967766,-9.805845649630552,,,,,,,,,,
acc,1778674517.0,316.0,0.028847389975291175,0.3157219387794838,-9.806119958224974,,,,,,,,,,
acc,1778674517.0,316.0,0.028940496595088724,0.3160842349912997,-9.806391750987688,,,,,,,,,,
acc,1778674517.0,316.0,0.02867671732847764,0.3164432089430945,-9.806340611582536,,,,,,,,,,
acc,1778674517.0,316.0,0.02877136923002783,0.3167988916384886,-9.806610363421099,,,,,,,,,,
acc,1778674517.0,316.0,0.02886515345404379,0.31715131377726363,-9.806877642434431,,,,,,,,,,
acc,1778674517.0,316.0,0.02895807809018582,0.3171801173505922,-9.806822083269413,,,,,,,,,,
acc,1778674517.0,316.0,0.029050151149036384,0.3175290288502028,-9.80708740514527,,,,,,,,,,
acc,1778674517.0,316.0,0.029141380562970366,0.3175543876855958,-9.807350295935914,,,,,,,,,,
acc,1778674517.0,316.0,0.029231774187013268,0.317579514198349,-9.807290438537812,,,,,,,,,,
acc,1778674517.0,316.0,0.029321339799687565,0.31760441055064087,-9.8072311294373,,,,,,,,,,
acc,1778674517.0,316.0,0.029410085103847444,0.31762907888361647,-9.807172363533654,,,,,,,,,,
acc,1778674517.0,316.0,0.02914214801852149,0.3176535213176164,-9.80672267180753,,,,,,,,,,
acc,1778674517.0,316.0,0.0288766642121547,0.31767773995240256,-9.806668543414295,,,,,,,,,,
acc,1778674517.0,316.0,0.028969448004380484,0.31770173686738074,-9.806223482449449,,,,,,,,,,
acc,1778674517.0,316.0,0.02906138248169293,0.3177255141218204,-9.806494156174072,,,,,,,,,,
acc,1778674517.0,316.0,0.029152475529214506,0.3177490737550714,-9.80676235255894,,,,,,,,,,
acc,1778674517.0,316.0,0.02924273495587562,0.31777241778677784,-9.806707872300656,,,,,,,,,,
acc,1778674517.0,316.0,0.02933216849523047,0.3177955482170891,-9.806653890544917,,,,,,,,,,
acc,1778674517.0,316.0,0.029420783806262136,0.318138662550132,-9.806209058656524,,,,,,,,,,
acc,1778674517.0,316.0,0.029152842283118662,0.3184786381110023,-9.80615962413725,,,,,,,,,,
acc,1778674517.0,316.0,0.028887351564955224,0.3184953342725579,-9.806110641785166,,,,,,,,,,
acc,1778674517.0,316.0,0.028624288948153876,0.31883203489522066,-9.806062107411515,,,,,,,,,,
acc,1778674517.0,316.0,0.028043496221013767,0.31916565650823403,-9.806014016867769,,,,,,,,,,
acc,1778674517.0,316.0,0.02778813765894934,0.319176094886651,-9.805966366045201,,,,,,,,,,
acc,1778674517.0,316.0,0.0278907914215858,0.3195065586757402,-9.805919150874473,,,,,,,,,,
acc,1778674517.0,316.0,0.02799250676617222,0.3195138923264608,-9.805872367325222,,,,,,,,,,
acc,1778674517.0,316.0,0.02809329237156017,0.3195211589432195,-9.805434786930734,,,,,,,,,,
acc,1778674517.0,316.0,0.02819315683363283,0.3195283591457771,-9.80539241658555,,,,,,,,,,
acc,1778674517.0,316.0,0.028292108666170417,0.31953549354797517,-9.805350433449465,,,,,,,,,,
acc,1778674517.0,316.0,0.028034541131548782,0.3195425627577971,-9.80530883394474,,,,,,,,,,
acc,1778674518.0,317.0,0.027779326948488284,0.3195495673774291,-9.80487644357258,,,,,,,,,,
acc,1778674518.0,317.0,0.027206410015546342,0.31955650800332047,-9.804839161666147,,,,,,,,,,
acc,1778674518.0,317.0,0.02663872670782167,0.319207804911742,-9.804766664120962,,,,,,,,,,
acc,1778674518.0,317.0,0.02607622872366829,0.31886228693823115,-9.80437481475807,,,,,,,,,,
acc,1778674518.0,317.0,0.025518868220498477,0.31851992469517343,-9.804306548411828,,,,,,,,,,
acc,1778674518.0,317.0,0.025286592218270853,0.3181806890740354,-9.804238905507741,,,,,,,,,,
acc,1778674518.0,317.0,0.02438090659928292,0.31784455124250227,-9.8042074321481,,,,,,,,,,
acc,1778674518.0,317.0,0.02348349067750858,0.3175114826416498,-9.8041762461676,,,,,,,,,,
acc,1778674518.0,317.0,0.02223875214681616,0.3175369710695637,-9.803754269941422,,,,,,,,,,
acc,1778674518.0,317.0,0.02100537720895435,0.3175622268059447,-9.80372720999945,,,,,,,,,,
acc,1778674518.0,317.0,0.019427755884372178,0.3172317557983502,-9.80366484927575,,,,,,,,,,
acc,1778674518.0,317.0,0.017864534754256242,0.31725978778065805,-9.803247562146705,,,,,,,,,,
acc,1778674518.0,317.0,0.016671067346944297,0.3169320868936933,-9.802869638601786,,,,,,,,,,
acc,1778674518.0,317.0,0.015488491918247504,0.316607376713497,-9.802175232269708,,,,,,,,,,
acc,1778674518.0,317.0,0.014316708225648102,0.3162856297155957,-9.801807086426065,,,,,,,,,,
acc,1778674518.0,317.0,0.013511066510750546,0.3159668186350467,-9.80115793661479,,,,,,,,,,
acc,1778674518.0,317.0,0.012357334957016512,0.31565091646382437,-9.800799066009787,,,,,,,,,,
acc,1778674518.0,317.0,0.011569561592134075,0.31533789644823695,-9.800159120315847,,,,,,,,,,
acc,1778674518.0,317.0,0.011144407637095469,0.31502773208637397,-9.799134039633211,,,,,,,,,,
acc,1778674518.0,317.0,0.010367707784303572,0.31539569685845487,-9.79779843453812,,,,,,,,,,
acc,1778674518.0,317.0,0.009242685740927565,0.31544042801258715,-9.796439473459799,,,,,,,,,,
acc,1778674518.0,317.0,0.008838731923583833,0.3154847511736884,-9.795092907470764,,,,,,,,,,
acc,1778674518.0,317.0,0.008758316029640606,0.31552867009022645,-9.793758622690167,,,,,,,,,,
acc,1778674518.0,317.0,0.009034016727482302,0.31557218847549673,-9.792436506305714,,,,,,,,,,
acc,1778674518.0,317.0,0.009307203255925657,0.31561531000797205,-9.79077106187858,,,,,,,,,,
acc,1778674518.0,317.0,0.009933275894093698,0.3156580383316483,-9.78912080400363,,,,,,,,,,
acc,1778674518.0,317.0,0.010553639971423978,0.3157003770563861,-9.78748559326044,,,,,,,,,,
acc,1778674518.0,317.0,0.011168347885840283,0.3157423297582489,-9.785865291533906,,,,,,,,,,
acc,1778674518.0,317.0,0.012132807069524508,0.31578389997983686,-9.784259762001346,,,,,,,,,,
acc,1778674518.0,317.0,0.013763620659179894,0.31582509123061725,-9.782704401246868,,,,,,,,,,
acc,1778674518.0,317.0,0.015734909686661303,0.315865906987251,-9.782193694498881,,,,,,,,,,
acc,1778674518.0,317.0,0.018043555637119676,0.31590635069391554,-9.781367847879268,,,,,,,,,,
acc,1778674518.0,317.0,0.02068648706725624,0.31594642576262433,-9.780549528720286,,,,,,,,,,
acc,1778674518.0,317.0,0.023305329922467997,0.3159861355735424,-9.780342705306657,,,,,,,,,,
acc,1778674518.0,317.0,0.025900305043217654,0.3160254834752987,-9.780137766850082,,,,,,,,,,
acc,1778674518.0,317.0,0.02847163121054255,0.31606447278529487,-9.780325533632729,,,,,,,,,,
acc,1778674518.0,317.0,0.031019525166194616,0.3161031067900107,-9.7805115893174,,,,,,,,,,
acc,1778674518.0,317.0,0.033899489748254935,0.31614138874530595,-9.780660422591371,,,,,,,,,,
acc,1778674518.0,317.0,0.0367532121904507,0.3164990867791903,-9.781198717407708,,,,,,,,,,
acc,1778674518.0,317.0,0.03958093289231041,0.31653376595889415,-9.781732107541714,,,,,,,,,,
acc,1778674518.0,317.0,0.042382890016498406,0.3165681291739629,-9.782615908632192,,,,,,,,,,
acc,1778674518.0,317.0,0.04480405438778772,0.3166021793180582,-9.78381139815622,,,,,,,,,,
acc,1778674518.0,317.0,0.04720316142537259,0.3166359192579394,-9.784995996510823,,,,,,,,,,
acc,1778674518.0,317.0,0.04958041307823337,0.31631409759233453,-9.786205336111454,,,,,,,,,,
acc,1778674518.0,317.0,0.05158075137682619,0.3163504564737179,-9.787723385238476,,,,,,,,,,
acc,1778674518.0,317.0,0.05320762486919324,0.3163864841625201,-9.789263129031774,,,,,,,,,,
acc,1778674518.0,317.0,0.05446443209380071,0.3164221836898133,-9.790788847927457,,,,,,,,,,
acc,1778674518.0,317.0,0.055709792062365135,0.31645755805854475,-9.792655912994993,,,,,,,,,,
acc,1778674518.0,317.0,0.05626887313480681,0.31649261024380815,-9.79482568082844,,,,,,,,,,
acc,1778674518.0,317.0,0.056822862405375825,0.31684705560180265,-9.79697568761387,,,,,,,,,,
acc,1778674518.0,317.0,0.056661349981968465,0.31687856485816374,-9.798750894973333,,,,,,,,,,
acc,1778674518.0,317.0,0.05650130840694625,0.31690978716855583,-9.800865150499693,,,,,,,,,,
acc,1778674518.0,317.0,0.055987514319618244,0.3169407251571779,-9.802960152842482,,,,,,,,,,
acc,1778674518.0,317.0,0.05480349764280849,0.3169713814239313,-9.805391283475727,,,,,,,,,,
acc,1778674518.0,317.0,0.053630262238223245,0.31700175854465257,-9.807800277021139,,,,,,,,,,
acc,1778674518.0,317.0,0.051757307089197666,0.3170318590713443,-9.809832139180294,,,,,,,,,,
acc,1778674518.0,317.0,0.04954621278942384,0.317061685532403,-9.811525826207559,,,,,,,,,,
acc,1778674518.0,317.0,0.047035578565695235,0.3170912404328451,-9.813914478344344,,,,,,,,,,
acc,1778674518.0,317.0,0.044192608837319354,0.3171205262545301,-9.815571005903951,,,,,,,,,,
acc,1778674518.0,317.0,0.04137552167160643,0.3171495454563818,-9.817212452339783,,,,,,,,,,
acc,1778674518.0,317.0,0.03822889529783201,0.3171783004746072,-9.818838955453808,,,,,,,,,,
acc,1778674518.0,317.0,0.035110914085304694,0.3172067937229127,-9.820450651775277,,,,,,,,,,
acc,1778674518.0,317.0,0.0320213163438334,0.31687985910343075,-9.82165698396068,,,,,,,,,,
acc,1778674518.0,317.0,0.02895984279876929,0.31655590052621063,-9.822852335065,,,,,,,,,,
acc,1778674518.0,317.0,0.025926236568039805,0.3162348908085413,-9.823681635220304,,,,,,,,,,
acc,1778674518.0,317.0,0.022920243139418938,0.31627196048698136,-9.824538909855153,,,,,,,,,,
acc,1778674518.0,317.0,0.019941610348030808,0.3163086927561595,-9.825033218532878,,,,,,,,,,
acc,1778674518.0,317.0,0.016634937904302,0.31666473701224573,-9.825487514905625,,,,,,,,,,
acc,1778674518.0,317.0,0.013713508156492924,0.31669789749141974,-9.825973189387675,,,,,,,,,,
acc,1778674518.0,317.0,0.01117381980076667,0.3167307561692942,-9.826099299949476,,,,,,,,,,
acc,1778674518.0,317.0,0.00865724509674924,0.3167633158010143,-9.826224262781638,,,,,,,,,,
acc,1778674518.0,317.0,0.006518719307639731,0.31679557911634726,-9.825992942110597,,,,,,,,,,
acc,1778674518.0,317.0,0.004719277541208829,0.3168275488199221,-9.825728214989248,,,,,,,,,,
acc,1778674518.0,317.0,0.0032913419983676877,0.316859227591467,-9.825501408217253,,,,,,,,,,
acc,1778674518.0,317.0,0.002231537575592825,0.31689061808604463,-9.82488601752531,,,,,,,,,,
acc,1778674518.0,317.0,0.0011813771312357679,0.31692172293428433,-9.824276226748243,,,,,,,,,,
acc,1778674518.0,317.0,0.0004958945211739359,0.31695254474261286,-9.823387883669069,,,,,,,,,,
acc,1778674518.0,317.0,0.00017177738422665604,0.3169830860934822,-9.822543143075402,,,,,,,,,,
acc,1778674518.0,317.0,-0.00014939057900317695,0.3170133495455951,-9.821706088859507,,,,,,,,,,
acc,1778674518.0,317.0,-0.00014803246665657228,0.3170433376341289,-9.820876650901136,,,,,,,,,,
acc,1778674518.0,317.0,0.00020842386634491143,0.31707305287095633,-9.820054759724613,,,,,,,,,,
acc,1778674518.0,317.0,0.0012718709471061431,0.3171024977448648,-9.819240346492785,,,,,,,,,,
acc,1778674518.0,317.0,0.002680747755160114,0.31713167472177306,-9.818078228669147,,,,,,,,,,
acc,1778674518.0,317.0,0.004076806524775132,0.3171605862449458,-9.817281795592898,,,,,,,,,,
acc,1778674518.0,317.0,0.005779756055340373,0.3171892347352063,-9.816457091068996,,,,,,,,,,
acc,1778674518.0,317.0,0.007147623072624637,0.31721762259114683,-9.815320299777479,,,,,,,,,,
acc,1778674518.0,317.0,0.008822633396594753,0.3172457521893367,-9.81451343785378,,,,,,,,,,
acc,1778674518.0,317.0,0.010837507485269396,0.31759322024297054,-9.813358823461643,,,,,,,,,,
acc,1778674518.0,317.0,0.012834052058204202,0.31761793511835906,-9.812214712714768,,,,,,,,,,
acc,1778674518.0,317.0,0.014812434220829363,0.31764242516445323,-9.811436097880074,,,,,,,,,,
acc,1778674518.0,317.0,0.016772819545397423,0.3173116066894392,-9.810700081752378,,,,,,,,,,
acc,1778674518.0,317.0,0.018715372085312137,0.31698379752823214,-9.809970760847781,,,,,,,,,,
acc,1778674518.0,317.0,0.02099533568496867,0.3170140515460978,-9.809496627409109,,,,,,,,,,
acc,1778674518.0,317.0,0.022899481071738306,0.3170440303663702,-9.808742739856223,,,,,,,,,,
acc,1778674518.0,317.0,0.024786306221895815,0.31707373649724396,-9.808315289932587,,,,,,,,,,
acc,1778674518.0,317.0,0.026300884972117588,0.31710317242392033,-9.807572149713774,,,,,,,,,,
acc,1778674518.0,317.0,0.027482120088381627,0.3171323406088217,-9.807119830848656,,,,,,,,,,
acc,1778674518.0,317.0,0.02865261117156409,0.3174808181795262,-9.806671626091545,,,,,,,,,,
acc,1778674518.0,317.0,0.029812456124055132,0.31750655328252647,-9.80661808100726,,,,,,,,,,
acc,1778674518.0,317.0,0.03096175195129762,0.3175320543173228,-9.8068845940976,,,,,,,,,,
acc,1778674518.0,317.0,0.03174552971908466,0.3172022583655437,-9.806793609072786,,,,,,,,,,
acc,1778674518.0,317.0,0.03216710675846119,0.31687546190692,-9.80670345155649,,,,,,,,,,
acc,1778674518.0,317.0,0.032229779178832234,0.3165516376146029,-9.806614114009706,,,,,,,,,,
acc,1778674518.0,317.0,0.03193682206570401,0.31623075841195963,-9.80691616173443,,,,,,,,,,
acc,1778674518.0,317.0,0.03132697545703859,0.31626785524683676,-9.807179958502825,,,,,,,,,,
acc,1778674518.0,317.0,0.03036760993477154,0.3159495586671512,-9.80744135618645,,,,,,,,,,
acc,1778674518.0,317.0,0.02941696918111341,0.3159892111094575,-9.807735880253677,,,,,,,,,,
acc,1778674518.0,317.0,0.028474973726923893,0.3156734502862046,-9.807992222417594,,,,,,,,,,
acc,1778674518.0,317.0,0.027186493815661406,0.31571561202349496,-9.808601284406611,,,,,,,,,,
acc,1778674518.0,317.0,0.0259097312490238,0.31575739034494665,-9.809204807629243,,,,,,,,,,
acc,1778674518.0,317.0,0.024644579313440097,0.315443740928099,-9.809838345492354,,,,,,,,,,
acc,1778674518.0,317.0,0.02303587692461061,0.3151329437403515,-9.810466122161495,,,,,,,,,,
acc,1778674518.0,317.0,0.021441803378521702,0.3151800175365132,-9.81105268744648,,,,,,,,,,
acc,1778674518.0,317.0,0.019507182233469755,0.3152266632694374,-9.811669421334,,,,,,,,,,
acc,1778674518.0,317.0,0.01759015324916843,0.31527288483702354,-9.812280547052854,,,,,,,,,,
acc,1778674518.0,317.0,0.01569055623919337,0.3153186861015334,-9.812886115668539,,,,,,,,,,
acc,1778674518.0,317.0,0.014163271367517879,0.31536407088992063,-9.813450675708948,,,,,,,,,,
acc,1778674518.0,317.0,0.012649874106255994,0.31540904299415734,-9.813655064710796,,,,,,,,,,
acc,1778674518.0,317.0,0.011150238014606847,0.31545360617155765,-9.814212631344695,,,,,,,,,,
acc,1778674518.0,317.0,0.01001928167185959,0.31514272936954424,-9.814800629798956,,,,,,,,,,
acc,1778674518.0,317.0,0.008543566224454287,0.3148346792749025,-9.815383281763694,,,,,,,,,,
acc,1778674518.0,317.0,0.0074363101031451485,0.3148844623120123,-9.81525056250707,,,,,,,,,,
acc,1778674518.0,317.0,0.006339121701429715,0.31493379269715793,-9.81543858870198,,,,,,,,,,
acc,1778674518.0,317.0,0.005251909372303804,0.3149826745508551,-9.815305367711018,,,,,,,,,,
acc,1778674518.0,317.0,0.004174582305902769,0.31503111195598105,-9.815173358005525,,,,,,,,,,
acc,1778674518.0,317.0,0.0034620777221269668,0.31507910895812197,-9.815007047657522,,,,,,,,,,
acc,1778674518.0,317.0,0.0027560513131950205,0.3151266695659169,-9.814842249422616,,,,,,,,,,
acc,1778674519.0,318.0,0.0024114780581268886,0.3151737977513985,-9.81471445020532,,,,,,,,,,
acc,1778674519.0,318.0,0.002389560801108382,0.3152204974503305,-9.814587812930611,,,,,,,,,,
acc,1778674519.0,318.0,0.002367842812532527,0.31526677256254204,-9.814462327023177,,,,,,,,,,
acc,1778674519.0,318.0,0.0027013437705887774,0.31531262695225887,-9.814657512253243,,,,,,,,,,
acc,1778674519.0,318.0,0.003031812643878932,0.315677593724937,-9.814531393644696,,,,,,,,,,
acc,1778674519.0,318.0,0.0033592770263262154,0.31571971404404253,-9.814406421656104,,,,,,,,,,
acc,1778674519.0,318.0,0.0036837642599974623,0.3157614514254511,-9.813892058442464,,,,,,,,,,
acc,1778674519.0,318.0,0.004360327811660011,0.31580280935395677,-9.81338237153117,,,,,,,,,,
acc,1778674519.0,318.0,0.005030740478984276,0.3158437912825522,-9.812877318368223,,,,,,,,,,
acc,1778674519.0,318.0,0.006050082616714276,0.31588440063272105,-9.812376856787939,,,,,,,,,,
acc,1778674519.0,318.0,0.0070601577002149555,0.31592464079472793,-9.811880945009367,,,,,,,,,,
acc,1778674519.0,318.0,0.008416063428524839,0.3159645151279056,-9.811780063616974,,,,,,,,,,
acc,1778674519.0,318.0,0.009759642530089565,0.3160040269609392,-9.811289578386658,,,,,,,,,,
acc,1778674519.0,318.0,0.011091007162529308,0.31604317959214834,-9.811194072103222,,,,,,,,,,
acc,1778674519.0,318.0,0.012055257835073389,0.3160819762897658,-9.81070891510159,,,,,,,,,,
acc,1778674519.0,318.0,0.013365752385603285,0.3161204202922145,-9.809979665408454,,,,,,,,,,
acc,1778674519.0,318.0,0.01430932463423174,0.31647803370059596,-9.809505547745948,,,,,,,,,,
acc,1778674519.0,318.0,0.015244319129752337,0.3165128780196272,-9.80903574015536,,,,,,,,,,
acc,1778674519.0,318.0,0.01617081391076857,0.31654740558089645,-9.808960718598287,,,,,,,,,,
acc,1778674519.0,318.0,0.01708888630426724,0.3162266129031305,-9.808531372668693,,,,,,,,,,
acc,1778674519.0,318.0,0.017643598287635794,0.31626374195742496,-9.808460935277866,,,,,,,,,,
acc,1778674519.0,318.0,0.018193267678541947,0.3159455287270734,-9.808355639537242,,,,,,,,,,
acc,1778674519.0,318.0,0.01873794034965467,0.31563020818525955,-9.808251300978007,,,,,,,,,,
acc,1778674519.0,318.0,0.018922649444706383,0.3156727572401334,-9.80818340939743,,,,,,,,,,
acc,1778674519.0,318.0,0.018750677007524547,0.3157149195116707,-9.808435648102314,,,,,,,,,,
acc,1778674519.0,318.0,0.018580267840212158,0.3157566985182511,-9.808366081429673,,,,,,,,,,
acc,1778674519.0,318.0,0.018411407722729613,0.3157980977461843,-9.808297147130537,,,,,,,,,,
acc,1778674519.0,318.0,0.01792458047408365,0.3161586318286901,-9.808228839452724,,,,,,,,,,
acc,1778674519.0,318.0,0.017442178519169516,0.3161963780799071,-9.80816115269648,,,,,,,,,,
acc,1778674519.0,318.0,0.016964161606166553,0.3158787822954009,-9.808449089223743,,,,,,,,,,
acc,1778674519.0,318.0,0.016490489850070008,0.3159190716949458,-9.80869891041077,,,,,,,,,,
acc,1778674519.0,318.0,0.016021123729329574,0.31560399727772276,-9.808981958686134,,,,,,,,,,
acc,1778674519.0,318.0,0.01555602408251922,0.3152917868439184,-9.809262434091334,,,,,,,,,,
acc,1778674519.0,318.0,0.014740146711700708,0.3149824143449185,-9.809504862214313,,,,,,,,,,
acc,1778674519.0,318.0,0.013576689794463102,0.3150308496499887,-9.80942557970436,,,,,,,,,,
acc,1778674519.0,318.0,0.012778803439747851,0.3150788446917879,-9.809311520160966,,,,,,,,,,
acc,1778674519.0,318.0,0.011988169609853428,0.3151264034744258,-9.809588998562912,,,,,,,,,,
acc,1778674519.0,318.0,0.010849728472223132,0.3151735299655349,-9.809828457220336,,,,,,,,,,
acc,1778674519.0,318.0,0.009721635287073255,0.31486523480412437,-9.810101236810652,,,,,,,,,,
acc,1778674519.0,318.0,0.008603795945997831,0.31491473462502934,-9.810336039506316,,,,,,,,,,
acc,1778674519.0,318.0,0.007851109360079446,0.3146087923553759,-9.810568707964519,,,,,,,,,,
acc,1778674519.0,318.0,0.007105264281547558,0.3146606225452801,-9.811189750550453,,,,,,,,,,
acc,1778674519.0,318.0,0.006366198493653344,0.3147119816294127,-9.811805148226593,,,,,,,,,,
acc,1778674519.0,318.0,0.005278859803771647,0.3147628738919567,-9.811704962154202,,,,,,,,,,
acc,1778674519.0,318.0,0.004556394312961156,0.31513280550332623,-9.811570189521166,,,,,,,,,,
acc,1778674519.0,318.0,0.0038404955187199526,0.31517987323466096,-9.811436641875343,,,,,,,,,,
acc,1778674519.0,318.0,0.0031311037066106334,0.31522651315568334,-9.811304308077275,,,,,,,,,,
acc,1778674519.0,318.0,0.002783157310121938,0.3155922297267387,-9.811528174693105,,,,,,,,,,
acc,1778674519.0,318.0,0.0024383734586034193,0.3156351221020173,-9.811430506411932,,,,,,,,,,
acc,1778674519.0,318.0,0.0024162140136668097,0.31567762462265864,-9.811653225558084,,,,,,,,,,
acc,1778674519.0,318.0,0.0023942559781402924,0.3157197408336413,-9.811554421100487,,,,,,,,,,
acc,1778674519.0,318.0,0.002372497520614079,0.31576147424766754,-9.811456514682975,,,,,,,,,,
acc,1778674519.0,318.0,0.002350936826352395,0.31580282834545836,-9.81135949813979,,,,,,,,,,
acc,1778674519.0,318.0,0.0026845578386110102,0.3158438065760457,-9.810872871793698,,,,,,,,,,
acc,1778674519.0,318.0,0.0030151465822452973,0.31588441235706205,-9.81078115948467,,,,,,,,,,
acc,1778674519.0,318.0,0.0033427306283384333,0.3159246490750273,-9.810690280742284,,,,,,,,,,
acc,1778674519.0,318.0,0.0036673372969871776,0.31628401700845477,-9.810600227987369,,,,,,,,,,
acc,1778674519.0,318.0,0.0039889936595946225,0.316640118695414,-9.810510993709745,,,,,,,,,,
acc,1778674519.0,318.0,0.0046627192791761415,0.31699298383350183,-9.810032081182067,,,,,,,,,,
acc,1778674519.0,318.0,0.005330321539577397,0.31702314601569004,-9.809557521395828,,,,,,,,,,
acc,1778674519.0,318.0,0.005991856114910458,0.3170530340606661,-9.809477763198151,,,,,,,,,,
acc,1778674519.0,318.0,0.007002369744502041,0.31740214560194163,-9.80939872990223,,,,,,,,,,
acc,1778674519.0,318.0,0.007648707907598652,0.3174285893644932,-9.809320414917321,,,,,,,,,,
acc,1778674519.0,318.0,0.008289171706487707,0.3177742872606733,-9.809242811712672,,,,,,,,,,
acc,1778674519.0,318.0,0.008923814549350203,0.31779734907960794,-9.80916591381696,,,,,,,,,,
acc,1778674519.0,318.0,0.009552689358309514,0.31813969512644896,-9.808699228419439,,,,,,,,,,
acc,1778674519.0,318.0,0.010175848573867996,0.31815943621127296,-9.808236784540167,,,,,,,,,,
acc,1778674519.0,318.0,0.010438354736365502,0.31817899787773984,-9.808169029256357,,,,,,,,,,
acc,1778674519.0,318.0,0.011053464185492957,0.3181983817570162,-9.80842138267453,,,,,,,,,,
acc,1778674519.0,318.0,0.011662983197144134,0.3178626097956744,-9.80831645381506,,,,,,,,,,
acc,1778674519.0,318.0,0.01262195102900005,0.3175298894977005,-9.808602963152133,,,,,,,,,,
acc,1778674519.0,318.0,0.01321721519001613,0.31720019311985453,-9.808496384355331,,,,,,,,,,
acc,1778674519.0,318.0,0.013452081518514606,0.316518514455466,-9.808390774194686,,,,,,,,,,
acc,1778674519.0,318.0,0.013684813281507946,0.3161980095872717,-9.808286123864288,,,,,,,,,,
acc,1778674519.0,318.0,0.013560451775900652,0.315880417596731,-9.808182424638348,,,,,,,,,,
acc,1778674519.0,318.0,0.013437220515021728,0.31556571200316125,-9.80807966787047,,,,,,,,,,
acc,1778674519.0,318.0,0.013315109224005025,0.31525386656680937,-9.80765836340503,,,,,,,,,,
acc,1778674519.0,318.0,0.013194107721466355,0.31529983252436633,-9.807595865133967,,,,,,,,,,
acc,1778674519.0,318.0,0.013074205918650963,0.3153453807288397,-9.807533934866854,,,,,,,,,,
acc,1778674519.0,318.0,0.012955393818588819,0.3153905149778708,-9.807472567440174,,,,,,,,,,
acc,1778674519.0,318.0,0.012837661515257677,0.3150802626210888,-9.807766743238359,,,,,,,,,,
acc,1778674519.0,318.0,0.012720999192753808,0.3147728299158721,-9.808058245492793,,,,,,,,,,
acc,1778674519.0,318.0,0.012285917007304055,0.31446819123032,-9.807956617759823,,,,,,,,,,
acc,1778674519.0,318.0,0.011499804220323335,0.3145212967988523,-9.808246394107684,,,,,,,,,,
acc,1778674519.0,318.0,0.011075820247558288,0.31457391973375515,-9.808498041191571,,,,,,,,,,
acc,1778674519.0,318.0,0.010300705290999664,0.3146260644223,-9.808782896959244,,,,,,,,,,
acc,1778674519.0,318.0,0.009532634699058401,0.31432276031742595,-9.809029668241692,,,,,,,,,,
acc,1778674519.0,318.0,0.008771544437327788,0.31437718733862924,-9.809309692481305,,,,,,,,,,
acc,1778674519.0,318.0,0.008372354565275679,0.3140761452966817,-9.809587171827527,,,,,,,,,,
acc,1778674519.0,318.0,0.007976792570888666,0.3137778391550581,-9.80986212941357,,,,,,,,,,
acc,1778674519.0,318.0,0.007584825476760117,0.3134822440444254,-9.8097441095249,,,,,,,,,,
acc,1778674519.0,318.0,0.006841437768313772,0.31354430907132935,-9.810017640603359,,,,,,,,,,
acc,1778674519.0,318.0,0.00610480600390585,0.31325083651521585,-9.80993370319749,,,,,,,,,,
acc,1778674519.0,318.0,0.005729851180719295,0.31331500436752774,-9.810170015510652,,,,,,,,,,
acc,1778674519.0,318.0,0.005003321754373167,0.3133785890613405,-9.810439675707265,,,,,,,,,,
acc,1778674519.0,318.0,0.004283395027874679,0.313441595897419,-9.810316407765077,,,,,,,,,,
acc,1778674519.0,318.0,0.0039249927768666695,0.3135040301283183,-9.809839278287875,,,,,,,,,,
acc,1778674519.0,318.0,0.0035698476746348707,0.3135658969588227,-9.809756961976543,,,,,,,,,,
acc,1778674519.0,318.0,0.0035374070140041093,0.31327222923353887,-9.809639898338308,,,,,,,,,,
acc,1778674519.0,318.0,0.003505261172144579,0.3133362024650302,-9.809559393962106,,,,,,,,,,
acc,1778674519.0,318.0,0.003828379404229277,0.3133995943125726,-9.809479621203662,,,,,,,,,,
acc,1778674519.0,318.0,0.0037935894154686135,0.3134624100606432,-9.809400573412951,,,,,,,,,,
acc,1778674519.0,318.0,0.004114087165122608,0.3135246549456616,-9.809322244000425,,,,,,,,,,
acc,1778674519.0,318.0,0.004431672268622893,0.3139058193152843,-9.808854150633891,,,,,,,,,,
acc,1778674519.0,318.0,0.004391399980755655,0.3142835197127311,-9.808780786850061,,,,,,,,,,
acc,1778674519.0,318.0,0.004706464730057502,0.3143383027747296,-9.808708089785776,,,,,,,,,,
acc,1778674519.0,318.0,0.004663695339609053,0.31471207267420637,-9.808636053381042,,,,,,,,,,
acc,1778674519.0,318.0,0.004976285345969551,0.31476296126699227,-9.808564671630965,,,,,,,,,,
acc,1778674519.0,318.0,0.005641014232560862,0.31481338739349485,-9.80849393858526,,,,,,,,,,
acc,1778674519.0,318.0,0.005944722709475237,0.31518283951763815,-9.808743332608243,,,,,,,,,,
acc,1778674519.0,318.0,0.006245671146354998,0.3152294500169292,-9.80867097606965,,,,,,,,,,
acc,1778674519.0,318.0,0.006543884629447607,0.31527563693016386,-9.808918761073759,,,,,,,,,,
acc,1778674519.0,318.0,0.006839388016892898,0.3156408879542349,-9.80884481041776,,,,,,,,,,
acc,1778674519.0,318.0,0.0067772361528245645,0.31600281966506233,-9.808771531807492,,,,,,,,,,
acc,1778674519.0,318.0,0.006715649109213401,0.3163614622318321,-9.808698919134743,,,,,,,,,,
acc,1778674519.0,318.0,0.007009591253036135,0.31639736209406844,-9.808236492626309,,,,,,,,,,
acc,1778674519.0,318.0,0.007300862131258148,0.31643293570820097,-9.80816874208993,,,,,,,,,,
acc,1778674519.0,318.0,0.00758948602270764,0.3164681860394614,-9.8084210904571,,,,,,,,,,
acc,1778674519.0,318.0,0.007875486985461595,0.3165031160261207,-9.807961189204685,,,,,,,,,,
acc,1778674519.0,318.0,0.008158888858855193,0.3165377285797343,-9.807895940516222,,,,,,,,,,
acc,1778674519.0,318.0,0.008084746439026963,0.3165720265853853,-9.807831284787245,,,,,,,,,,
acc,1778674519.0,318.0,0.008011277801375467,0.31625104420308187,-9.808122194414645,,,,,,,,,,
acc,1778674519.0,318.0,0.007938476822074152,0.3162879473746164,-9.808055482692012,,,,,,,,,,
acc,1778674519.0,318.0,0.007866337432973566,0.31632451518285093,-9.807989377222514,,,,,,,,,,
acc,1778674519.0,318.0,0.007794853621094627,0.31636075067579383,-9.807923872496113,,,,,,,,,,
acc,1778674519.0,318.0,0.007724019428126519,0.31639665687374197,-9.808178445347625,,,,,,,,,,
acc,1778674519.0,318.0,0.007653828949929169,0.3160772686748953,-9.808466199727857,,,,,,,,,,
acc,1778674519.0,318.0,0.00758427633604027,0.3157607829542453,-9.808751339105976,,,,,,,,,,
acc,1778674519.0,318.0,0.0075153557891868015,0.31544717333242217,-9.809033887248606,,,,,,,,,,
acc,1778674519.0,318.0,0.007447061564801002,0.3154913814276013,-9.809278372747988,,,,,,,,,,
acc,1778674520.0,319.0,0.007059915268574937,0.31553518777759765,-9.809201154673366,,,,,,,,,,
acc,1778674520.0,319.0,0.006995759803475819,0.31557859603366883,-9.809124638324553,,,,,,,,,,
acc,1778674520.0,319.0,0.006932187356094068,0.3156216098138785,-9.809048817323939,,,,,,,,,,
acc,1778674520.0,319.0,0.006869192627706363,0.31566423270339794,-9.809293166859264,,,,,,,,,,
acc,1778674520.0,319.0,0.006806770367760173,0.3157064682548058,-9.80921581443647,,,,,,,,,,
acc,1778674520.0,319.0,0.006425443132858753,0.31574831998838426,-9.80913916495795,,,,,,,,,,
acc,1778674520.0,319.0,0.0063670533799512355,0.31543482435264436,-9.80902771714856,,,,,,,,,,
acc,1778674520.0,319.0,0.006664161190662932,0.31547914456505766,-9.808952777002425,,,,,,,,,,
acc,1778674520.0,319.0,0.0066036021739206184,0.3155230620161553,-9.808878517877211,,,,,,,,,,
acc,1778674520.0,319.0,0.006224121588083205,0.31556658036635604,-9.80880493358359,,,,,,,,,,
acc,1778674520.0,319.0,0.005848089538576399,0.31560970324280313,-9.808732017988499,,,,,,,,,,
acc,1778674520.0,319.0,0.005120499016615833,0.3156524342396671,-9.807985317607328,,,,,,,,,,
acc,1778674520.0,319.0,0.004044553982756301,0.3156947769184458,-9.807529379698092,,,,,,,,,,
acc,1778674520.0,319.0,0.00262341110087273,0.3157367348082613,-9.806474136777332,,,,,,,,,,
acc,1778674520.0,319.0,0.0012151828413201774,0.3157783114061549,-9.806031931569843,,,,,,,,,,
acc,1778674520.0,319.0,-0.00018024816639420206,0.31546454393560286,-9.805309768266799,,,,,,,,,,
acc,1778674520.0,319.0,-0.0015629982258356055,0.3155085939809022,-9.804629671492616,,,,,,,,,,
acc,1778674520.0,319.0,-0.003288148664904364,0.31519727764110717,-9.803955755078572,,,,,,,,,,
acc,1778674520.0,319.0,-0.004997621858730155,0.3148887903778359,-9.801868080667791,,,,,,,,,,
acc,1778674520.0,319.0,-0.007366006450032677,0.315257552646276,-9.801183755934309,,,,,,,,,,
acc,1778674520.0,319.0,-0.010777775098768077,0.3149485177812566,-9.800505649970244,,,,,,,,,,
acc,1778674520.0,319.0,-0.014832985360120288,0.31531673713771,-9.798449328819467,,,,,,,,,,
acc,1778674520.0,319.0,-0.019916259422991453,0.3153621302821229,-9.799535432562884,,,,,,,,,,
acc,1778674520.0,319.0,-0.02530830518772128,0.3146971796500853,-9.797452425005803,,,,,,,,,,
acc,1778674520.0,319.0,-0.03413006271070428,0.31439323727611185,-9.794003970030332,,,,,,,,,,
acc,1778674520.0,319.0,-0.04493047484960722,0.3137370914599356,-9.796905314798643,,,,,,,,,,
acc,1778674520.0,319.0,-0.055632739096115325,0.31344187374580795,-9.792787387641493,,,,,,,,,,
acc,1778674520.0,319.0,-0.07113633666608574,0.31243939898534295,-9.793215001882185,,,,,,,,,,
acc,1778674520.0,319.0,-0.08649904667496486,0.31144603412491373,-9.794348669899195,,,,,,,,,,
acc,1778674520.0,319.0,-0.10346149914000151,0.3111716359293009,-9.789224567729915,,,,,,,,,,
acc,1778674520.0,319.0,-0.12513288981911827,0.31018979187026674,-9.7934827270197,,,,,,,,,,
acc,1778674520.0,319.0,-0.14589740467557857,0.3092168702173133,-9.791099759717623,,,,,,,,,,
acc,1778674520.0,319.0,-0.17066186999568458,0.308607764021162,-9.789448386558874,,,,,,,,,,
acc,1778674520.0,319.0,-0.19694063947857468,0.3072942448538791,-9.793704509785167,,,,,,,,,,
acc,1778674520.0,319.0,-0.2219511945232562,0.30634763615697125,-9.789296204549123,,,,,,,,,,
acc,1778674520.0,319.0,-0.25124257399715905,0.30505465568910733,-9.791494891219774,,,,,,,,,,
acc,1778674520.0,319.0,-0.2813326843888503,0.3034539548636715,-9.792999153542567,,,,,,,,,,
acc,1778674520.0,319.0,-0.313563146119219,0.3018678001980639,-9.789555670434828,,,,,,,,,,
acc,1778674520.0,319.0,-0.34968935051440225,0.29994109478972963,-9.794875727687826,,,,,,,,,,
acc,1778674520.0,319.0,-0.38548726304253933,0.2980318980493094,-9.793935476386247,,,,,,,,,,
acc,1778674520.0,319.0,-0.4237286310523514,0.29614005086149603,-9.795027091355273,,,,,,,,,,
acc,1778674520.0,319.0,-0.46371680618806255,0.29426539555719916,-9.799587488124684,,,,,,,,,,
acc,1778674520.0,319.0,-0.502986621220037,0.29276274040318734,-9.797149049666523,,,,,,,,,,
acc,1778674520.0,319.0,-0.5443488707725457,0.29127374039562665,-9.80137069265696,,,,,,,,,,
acc,1778674520.0,319.0,-0.5849802739387899,0.28944330703496085,-9.802430245388045,,,,,,,,,,
acc,1778674520.0,319.0,-0.6266268267970508,0.28727453399637903,-9.802770231803507,,,,,,,,,,
acc,1778674520.0,319.0,-0.6693147989211672,0.2847705050129811,-9.806585818876036,,,,,,,,,,
acc,1778674520.0,319.0,-0.7119698155859047,0.2829991685858426,-9.807562476589474,,,,,,,,,,
acc,1778674520.0,319.0,-0.755621592601043,0.2805339913461939,-9.809630664532323,,,,,,,,,,
acc,1778674520.0,319.0,-0.7995511346182699,0.27809121597054526,-9.812354501019282,,,,,,,,,,
acc,1778674520.0,319.0,-0.8434364389391014,0.27673554036054454,-9.813278737210016,,,,,,,,,,
acc,1778674520.0,319.0,-0.8886622876079265,0.27539218420483974,-9.81632439545743,,,,,,,,,,
acc,1778674520.0,319.0,-0.9328027212835119,0.27370607150095455,-9.817212556219406,,,,,,,,,,
acc,1778674520.0,319.0,-0.9775714436433508,0.27203528102720237,-9.81990298786422,,,,,,,,,,
acc,1778674520.0,319.0,-1.0236726822747133,0.2707346375062773,-9.821504069744426,,,,,,,,,,
acc,1778674520.0,319.0,-1.06832557861942,0.26976528268011113,-9.824155502971532,,,,,,,,,,
acc,1778674520.0,319.0,-1.1128921699460388,0.26813030347047045,-9.825682446505356,,,,,,,,,,
acc,1778674520.0,319.0,-1.1574087442866179,0.2665101818050833,-9.826130604526163,,,,,,,,,,
acc,1778674520.0,319.0,-1.2018757471652624,0.2655792157233756,-9.828704500132448,,,,,,,,,,
acc,1778674520.0,319.0,-1.2466486020044172,0.2646567096030524,-9.830225600144946,,,,,,,,,,
acc,1778674520.0,319.0,-1.2910145929271606,0.2640975593888849,-9.8317328774805,,,,,,,,,,
acc,1778674520.0,319.0,-1.3352968864960642,0.2631885175433739,-9.833545926903867,,,,,,,,,,
acc,1778674520.0,319.0,-1.3791767742628949,0.2622877364197786,-9.835732967935625,,,,,,,,,,
acc,1778674520.0,319.0,-1.4223384440325748,0.26139514094817545,-9.837545161988244,,,,,,,,,,
acc,1778674520.0,319.0,-1.4647529280548168,0.2605106567409091,-9.840050824414453,,,,,,,,,,
acc,1778674520.0,319.0,-1.5067819799237536,0.25931474105874913,-9.842178753625932,,,,,,,,,,
acc,1778674520.0,319.0,-1.5480741296520872,0.25777472945587426,-9.84499728191725,,,,,,,,,,
acc,1778674520.0,319.0,-1.5886360828926405,0.2562487123569131,-9.847399730353494,,,,,,,,,,
acc,1778674520.0,319.0,-1.6288294387402562,0.25541099499921854,-9.850170814181968,,,,,,,,,,
acc,1778674520.0,319.0,-1.6686575468344051,0.25458089020276664,-9.852171276849846,,,,,,,,,,
acc,1778674520.0,319.0,-1.7091886256904798,0.25343885990142284,-9.854508533281756,,,,,,,,,,
acc,1778674520.0,319.0,-1.7493513880017493,0.25262667638914355,-9.856469577983422,,,,,,,,,,
acc,1778674520.0,319.0,-1.7894686496817798,0.2507924687750185,-9.857702875458468,,,,,,,,,,
acc,1778674520.0,319.0,-1.8295763278717854,0.24897492907839927,-9.859989864698077,,,,,,,,,,
acc,1778674520.0,319.0,-1.869674509718531,0.2468189425345356,-9.861226667021269,,,,,,,,,,
acc,1778674520.0,319.0,-1.9097632724885698,0.24468254798699143,-9.862097257853407,,,,,,,,,,
acc,1778674520.0,319.0,-1.9494877385918268,0.24292053063442745,-9.864024845303835,,,,,,,,,,
acc,1778674520.0,319.0,-1.9892061817794635,0.24152949747414998,-9.864124578450767,,,,,,,,,,
acc,1778674520.0,319.0,-2.0292381346111674,0.24015110497627476,-9.865323807537537,,,,,,,,,,
acc,1778674520.0,319.0,-2.0685868386013366,0.237720330607764,-9.86612167218699,,,,,,,,,,
acc,1778674520.0,319.0,-2.107897439981011,0.23566661750206241,-9.865882882443529,,,,,,,,,,
acc,1778674520.0,319.0,-2.1461763756136074,0.23398653009591633,-9.865646262640135,,,,,,,,,,
acc,1778674520.0,319.0,-2.1837524982969563,0.23161177478276374,-9.864666354215158,,,,,,,,,,
acc,1778674520.0,319.0,-2.2220165616101997,0.2299685346521152,-9.8640858170918,,,,,,,,,,
acc,1778674520.0,319.0,-2.259258469667817,0.2273108233082157,-9.863155592405075,,,,,,,,,,
acc,1778674520.0,319.0,-2.295806988766646,0.22432230019146673,-9.861594874733022,,,,,,,,,,
acc,1778674520.0,319.0,-2.3323783459723506,0.22239033807122802,-9.860403311748161,,,,,,,,,,
acc,1778674520.0,319.0,-2.368262407843054,0.2194465286084286,-9.858867604710287,,,,,,,,,,
acc,1778674520.0,319.0,-2.403820383024073,0.21652947021651534,-9.856280955051114,,,,,,,,,,
acc,1778674520.0,319.0,-2.439055234798608,0.21399388272815398,-9.85478270874456,,,,,,,,,,
acc,1778674520.0,319.0,-2.4732599646132196,0.21148133669578695,-9.852552647960449,,,,,,,,,,
acc,1778674520.0,319.0,-2.5078638032450966,0.2093110911501246,-9.850697824214906,,,,,,,,,,
acc,1778674520.0,319.0,-2.542863123916707,0.20716056710888306,-9.847794948884577,,,,,,,,,,
acc,1778674520.0,319.0,-2.576479500389007,0.2047101169734346,-9.845983359345793,,,,,,,,,,
acc,1778674520.0,319.0,-2.6101453602964964,0.20192697178679472,-9.843123325455688,,,,,,,,,,
acc,1778674520.0,319.0,-2.643505291192555,0.19881414574976866,-9.84032477578093,,,,,,,,,,
acc,1778674520.0,319.0,-2.676562073169347,0.19675900963803847,-9.838971526474754,,,,,,,,,,
acc,1778674520.0,319.0,-2.708963498280635,0.1940481179036656,-9.835820247935311,,,,,,,,,,
acc,1778674520.0,319.0,-2.741425447469329,0.18997748588485744,-9.833443034793508,,,,,,,,,,
acc,1778674520.0,319.0,-2.7739473707671256,0.1869732474072769,-9.83176186399836,,,,,,,,,,
acc,1778674520.0,319.0,-2.805818797762977,0.18399630907889158,-9.829066558477194,,,,,,,,,,
acc,1778674520.0,319.0,-2.837400602416445,0.18069145102344572,-9.826040783059737,,,,,,,,,,
acc,1778674520.0,319.0,-2.8679854821682897,0.17741662490206114,-9.823397466180342,,,,,,,,,,
acc,1778674520.0,319.0,-2.8986474025381828,0.1741715578041017,-9.820423206999461,,,,,,,,,,
acc,1778674520.0,319.0,-2.930095588771151,0.17095597929907838,-9.81854087257152,,,,,,,,,,
acc,1778674520.0,319.0,-2.960903027174261,0.16812459313873068,-9.816320680664345,,,,,,,,,,
acc,1778674520.0,319.0,-2.9910755494943104,0.16567390806952198,-9.813730197939037,,,,,,,,,,
acc,1778674520.0,319.0,-3.021328850607143,0.16360045547775112,-9.812263655891247,,,,,,,,,,
acc,1778674520.0,319.0,-3.0502423370269924,0.1625752471863673,-9.809710040215725,,,,,,,,,,
acc,1778674520.0,319.0,-3.0792480524777583,0.16052995279096774,-9.807889563996872,,,,,,,,,,
acc,1778674520.0,319.0,-3.1083451497867727,0.15953264672705597,-9.806085630807404,,,,,,,,,,
acc,1778674520.0,319.0,-3.137177836019015,0.15818944083273542,-9.803943118680559,,,,,,,,,,
acc,1778674520.0,319.0,-3.165748513961531,0.1561840011957004,-9.802175047603697,,,,,,,,,,
acc,1778674520.0,319.0,-3.1933496304383833,0.154871225073557,-9.800458537769089,,,,,,,,,,
acc,1778674520.0,319.0,-3.2210549017940866,0.1535703784034182,-9.799112597786968,,,,,,,,,,
acc,1778674520.0,319.0,-3.2481534384073454,0.15160691313688127,-9.798737292806058,,,,,,,,,,
acc,1778674520.0,319.0,-3.2750057254019587,0.15104566392192062,-9.797052022577365,,,,,,,,,,
acc,1778674520.0,319.0,-3.302323934544317,0.15048951488605997,-9.796730945907528,,,,,,,,,,
acc,1778674520.0,319.0,-3.3297488603700436,0.14993841968245383,-9.795773841781712,,,,,,,,,,
acc,1778674520.0,319.0,-3.3569245706956004,0.14939233238543898,-9.794434978173125,,,,,,,,,,
acc,1778674520.0,319.0,-3.3834983677845067,0.1488512074867064,-9.794137683023678,,,,,,,,,,
acc,1778674520.0,319.0,-3.4098306837908483,0.14934440180999975,-9.79380758593948,,,,,,,,,,
acc,1778674520.0,319.0,-3.435568750715458,0.14947814289027092,-9.793480488509152,,,,,,,,,,
acc,1778674520.0,319.0,-3.4610729310405364,0.14893623827168304,-9.7935113349566,,,,,,,,,,
acc,1778674520.0,319.0,-3.487055274927748,0.14804428656929036,-9.793222433133458,,,,,,,,,,
acc,1778674520.0,319.0,-3.5128015124701655,0.14680547782316036,-9.793965558401124,,,,,,,,,,
acc,1778674520.0,319.0,-3.5376038645066807,0.14557792635925054,-9.793991996941468,,,,,,,,,,
acc,1778674520.0,319.0,-3.561470890165436,0.14436152987955964,-9.79401819522997,,,,,,,,,,
acc,1778674520.0,319.0,-3.5858309746815866,0.14315618701572363,-9.793724687525364,,,,,,,,,,
acc,1778674521.0,320.0,-3.609614723284342,0.142671731069552,-9.794853714476343,,,,,,,,,,
acc,1778674521.0,320.0,-3.632827373271098,0.1421916774618343,-9.794872082204584,,,,,,,,,,
acc,1778674521.0,320.0,-3.655509617846392,0.14100605247835327,-9.795955179041917,,,,,,,,,,
acc,1778674521.0,320.0,-3.678305212702214,0.13983120148087488,-9.795963537594064,,,,,,,,,,
acc,1778674521.0,320.0,-3.700893659932674,0.13799258730466873,-9.797746658910288,,,,,,,,,,
acc,1778674521.0,320.0,-3.723276841941506,0.13684512018211253,-9.798129203794604,,,,,,,,,,
acc,1778674521.0,320.0,-3.7451371561629174,0.1360630425688329,-9.799218206059356,,,,,,,,,,
acc,1778674521.0,320.0,-3.768183194688724,0.13528807183226774,-9.79990684660899,,,,,,,,,,
acc,1778674521.0,320.0,-3.7910198098281818,0.13523007698791348,-9.800624723769484,,,,,,,,,,
acc,1778674521.0,320.0,-3.8132939424172454,0.1362020196592383,-9.802010516627863,,,,,,,,,,
acc,1778674521.0,320.0,-3.8346557234440803,0.13645518746859814,-9.802673782982886,,,,,,,,,,
acc,1778674521.0,320.0,-3.856888291132552,0.13603162464481255,-9.803366516527273,,,,,,,,,,
acc,1778674521.0,320.0,-3.88030320029957,0.13664131215559192,-9.804372422899037,,,,,,,,,,
acc,1778674521.0,320.0,-3.9028308950548953,0.1368904880309395,-9.80465926400053,,,,,,,,,,
acc,1778674521.0,320.0,-3.9233790385043967,0.1374923708947793,-9.805653422938185,,,,,,,,,,
acc,1778674521.0,320.0,-3.943740457469414,0.13773381306185653,-9.806283585586632,,,,,,,,,,
acc,1778674521.0,320.0,-3.9649817535026752,0.13797306120292152,-9.807262984029673,,,,,,,,,,
acc,1778674521.0,320.0,-3.986030026280716,0.1389200777942273,-9.807523558148828,,,,,,,,,,
acc,1778674521.0,320.0,-4.00582212515201,0.14056841303543136,-9.808527192223709,,,,,,,,,,
acc,1778674521.0,320.0,-4.024050006532799,0.14113687398727542,-9.810586601696556,,,,,,,,,,
acc,1778674521.0,320.0,-4.040727875681342,0.1403157968219091,-9.811526897916103,,,,,,,,,,
acc,1778674521.0,320.0,-4.059348496028807,0.14053158207137612,-9.814268981932967,,,,,,,,,,
acc,1778674521.0,320.0,-4.078829308825846,0.14042593869504022,-9.81659568254458,,,,,,,,,,
acc,1778674521.0,320.0,-4.09500938942778,0.14170562765438582,-9.81961118249506,,,,,,,,,,
acc,1778674521.0,320.0,-4.109303104513902,0.14471302231230296,-9.82323821557263,,,,,,,,,,
acc,1778674521.0,320.0,-4.125916198003846,0.1490774605640193,-9.825163943580137,,,,,,,,,,
acc,1778674521.0,320.0,-4.144792098892696,0.15446714298196734,-9.829485945494147,,,,,,,,,,
acc,1778674521.0,320.0,-4.16523580572259,0.1573585717189706,-9.83064496608122,,,,,,,,,,
acc,1778674521.0,320.0,-4.185174269528855,0.16057869676485706,-9.832503387761307,,,,,,,,,,
acc,1778674521.0,320.0,-4.203511682680031,0.16376956000904971,-9.832925055079079,,,,,,,,,,
acc,1778674521.0,320.0,-4.221008021887767,0.16622149408102213,-9.833697861820282,,,,,,,,,,
acc,1778674521.0,320.0,-4.239729741164974,0.16900610912023306,-9.834818608031217,,,,,,,,,,
acc,1778674521.0,320.0,-4.258991266405474,0.17212039108341082,-9.836284141011385,,,,,,,,,,
acc,1778674521.0,320.0,-4.277722787892112,0.17378650657504396,-9.836635957656267,,,,,,,,,,
acc,1778674521.0,320.0,-4.295929130955212,0.17579244388016124,-9.837339539359778,,,,,,,,,,
acc,1778674521.0,320.0,-4.313260096833874,0.17920001935601235,-9.839492097424916,,,,,,,,,,
acc,1778674521.0,320.0,-4.330433573450752,0.18115676322420293,-9.840169724950593,,,,,,,,,,
acc,1778674521.0,320.0,-4.3481609251443505,0.18068195296357126,-9.841231660299286,,,,,,,,,,
acc,1778674521.0,320.0,-4.3667565864244064,0.17847212333290088,-9.843348850002581,,,,,,,,,,
acc,1778674521.0,320.0,-4.384863798315579,0.17628237477526057,-9.84296202978929,,,,,,,,,,
acc,1778674521.0,320.0,-4.402806467101725,0.1716632576411667,-9.842188259156671,,,,,,,,,,
acc,1778674521.0,320.0,-4.420586088018883,0.1674410771921608,-9.842486424185914,,,,,,,,,,
acc,1778674521.0,320.0,-4.4388785814814975,0.16219236917880553,-9.841113534563721,,,,,,,,,,
acc,1778674521.0,320.0,-4.4552655142489375,0.1566718893590762,-9.839362664192612,,,,,,,,,,
acc,1778674521.0,320.0,-4.470474126525795,0.15258593780119756,-9.837308227530206,,,,,,,,,,
acc,1778674521.0,320.0,-4.485544535759462,0.14782718280115495,-9.836301860614169,,,,,,,,,,
acc,1778674521.0,320.0,-4.501862369674712,0.14449604319881507,-9.833920275951929,,,,,,,,,,
acc,1778674521.0,320.0,-4.518031920887029,0.1429345080215012,-9.831560333121123,,,,,,,,,,
acc,1778674521.0,320.0,-4.5340545368698315,0.1393283613163544,-9.827163024930003,,,,,,,,,,
acc,1778674521.0,320.0,-4.5481922190534805,0.13575498422663196,-9.823799582087343,,,,,,,,,,
acc,1778674521.0,320.0,-4.562201429926964,0.13185910788426913,-9.819756770289795,,,,,,,,,,
acc,1778674521.0,320.0,-4.576757766537797,0.12590432913468438,-9.815111760926136,,,,,,,,,,
acc,1778674521.0,320.0,-4.591181827469821,0.11861929971689858,-9.810153990403611,,,,,,,,,,
acc,1778674521.0,320.0,-4.604445414075077,0.11242987114614554,-9.805560748597296,,,,,,,,,,
acc,1778674521.0,320.0,-4.618298405478434,0.10665164884641043,-9.800334807616588,,,,,,,,,,
acc,1778674521.0,320.0,-4.63167055064418,0.10092593413993056,-9.795475823161322,,,,,,,,,,
acc,1778674521.0,320.0,-4.6455956106453895,0.09628165959674861,-9.790341525448474,,,,,,,,,,
acc,1778674521.0,320.0,-4.659074663905407,0.09309945434248694,-9.786283284502955,,,,,,,,,,
acc,1778674521.0,320.0,-4.672431230950179,0.08923623325258438,-9.780522587783645,,,,,,,,,,
acc,1778674521.0,320.0,-4.6863408634690895,0.0864375184397019,-9.775524172407245,,,,,,,,,,
acc,1778674521.0,320.0,-4.698739725405615,0.08263483538604421,-9.77124561702024,,,,,,,,,,
acc,1778674521.0,320.0,-4.711025917000304,0.0774823362689473,-9.76704143589418,,,,,,,,,,
acc,1778674521.0,320.0,-4.724584833717891,0.0720216876523723,-9.76287545879956,,,,,,,,,,
acc,1778674521.0,320.0,-4.738375509543587,0.06764007042295658,-9.760770645310597,,,,,,,,,,
acc,1778674521.0,320.0,-4.751330925345911,0.06503760314223032,-9.759394891560534,,,,,,,,,,
acc,1778674521.0,320.0,-4.763849145763165,0.061074413302696355,-9.757002238951426,,,,,,,,,,
acc,1778674521.0,320.0,-4.777283020844623,0.057147237566347674,-9.757719539420359,,,,,,,,,,
acc,1778674521.0,320.0,-4.791979182743122,0.051516415181280126,-9.757116938876754,,,,,,,,,,
acc,1778674521.0,320.0,-4.8062223308525835,0.0449073604103006,-9.758223653349635,,,,,,,,,,
acc,1778674521.0,320.0,-4.820336049339062,0.040097696567794626,-9.758255416060162,,,,,,,,,,
acc,1778674521.0,320.0,-4.832901648462825,0.03359240541832937,-9.760061717956187,,,,,,,,,,
acc,1778674521.0,320.0,-4.8453530621083525,0.027820667386153432,-9.761106178402601,,,,,,,,,,
acc,1778674521.0,320.0,-4.858756222755489,0.02281130184566941,-9.761466709122375,,,,,,,,,,
acc,1778674521.0,320.0,-4.875161291766788,0.017847457156804653,-9.762178934653349,,,,,,,,,,
acc,1778674521.0,320.0,-4.8907073616375705,0.015023024057678053,-9.765333954396583,,,,,,,,,,
acc,1778674521.0,320.0,-4.904727790598726,0.010129952623625791,-9.768850769382677,,,,,,,,,,
acc,1778674521.0,320.0,-4.917236442388858,0.0063107547946713895,-9.773684494538722,,,,,,,,,,
acc,1778674521.0,320.0,-4.93172573055354,0.0032361954901727694,-9.78024913172937,,,,,,,,,,
acc,1778674521.0,320.0,-4.949916990083618,0.0015739375058286978,-9.787393050158139,,,,,,,,,,
acc,1778674521.0,320.0,-4.9700017438066935,0.0013111561277161802,-9.79479151827547,,,,,,,,,,
acc,1778674521.0,320.0,-4.986425317774163,0.004884400303899831,-9.801767793517113,,,,,,,,,,
acc,1778674521.0,320.0,-4.99957594359379,0.013323715354522953,-9.806621873484243,,,,,,,,,,
acc,1778674521.0,320.0,-5.012607067738395,0.02271574151476874,-9.810402434214842,,,,,,,,,,
acc,1778674521.0,320.0,-5.0276140713172905,0.028543745300024043,-9.81240930715178,,,,,,,,,,
acc,1778674521.0,320.0,-5.044224046406117,0.032934426867892226,-9.81333303948383,,,,,,,,,,
acc,1778674521.0,320.0,-5.0572044086041865,0.036930238688818874,-9.817017120461927,,,,,,,,,,
acc,1778674521.0,320.0,-5.068327483096922,0.04053477809212777,-9.820667723655708,,,,,,,,,,
acc,1778674521.0,320.0,-5.081798746682998,0.046200857644465194,-9.82676992284299,,,,,,,,,,
acc,1778674521.0,320.0,-5.096176995296703,0.05181544870250278,-9.830686862792987,,,,,,,,,,
acc,1778674521.0,320.0,-5.109040224413674,0.0539003527116267,-9.833254835429567,,,,,,,,,,
acc,1778674521.0,320.0,-5.118627355492605,0.052487644473962924,-9.834699083422155,,,,,,,,,,
acc,1778674521.0,320.0,-5.127097966557982,0.04934843143485535,-9.83542026538964,,,,,,,,,,
acc,1778674521.0,320.0,-5.134462203596901,0.04762211619568813,-9.835779931994091,,,,,,,,,,
acc,1778674521.0,320.0,-5.143498853923032,0.04868022175958303,-9.835426397417613,,,,,,,,,,
acc,1778674521.0,320.0,-5.152098425019337,0.05427228230460349,-9.834756607957559,,,,,,,,,,
acc,1778674521.0,320.0,-5.159909917732414,0.05981352698269248,-9.835512770633274,,,,,,,,,,
acc,1778674521.0,320.0,-5.166975987819289,0.06807316013558469,-9.83484219629448,,,,,,,,,,
acc,1778674521.0,320.0,-5.174297315001123,0.07451840365742174,-9.834497183060881,,,,,,,,,,
acc,1778674521.0,320.0,-5.181907083175464,0.07430269854477714,-9.832841931566751,,,,,,,,,,
acc,1778674521.0,320.0,-5.18667895775484,0.07270459139804848,-9.830136817813656,,,,,,,,,,
acc,1778674521.0,320.0,-5.193501773691531,0.07147596834541542,-9.826746353006971,,,,,,,,,,
acc,1778674521.0,320.0,-5.200262589713565,0.0726722815233538,-9.824416098147344,,,,,,,,,,
acc,1778674521.0,320.0,-5.206961969223965,0.07318328519204945,-9.823562387720271,,,,,,,,,,
acc,1778674521.0,320.0,-5.212180604897885,0.07333468343820877,-9.823319875694708,,,,,,,,,,
acc,1778674521.0,320.0,-5.217032350588326,0.07415913525225207,-9.821020757744474,,,,,,,,,,
acc,1778674521.0,320.0,-5.221840007766692,0.07533106609643288,-9.81806810286758,,,,,,,,,,
acc,1778674521.0,320.0,-5.228343310148146,0.07439804341931339,-9.816207173839517,,,,,,,,,,
acc,1778674521.0,320.0,-5.23652684915423,0.07453840298515896,-9.81887123084271,,,,,,,,,,
acc,1778674521.0,320.0,-5.244636023165143,0.07467748708345577,-9.817712936482891,,,,,,,,,,
acc,1778674521.0,320.0,-5.251606613311119,0.07517026915421254,-9.817559073611253,,,,,,,,,,
acc,1778674521.0,320.0,-5.2574844604395405,0.07565857324357092,-9.816057741168237,,,,,,,,,,
acc,1778674521.0,320.0,-5.261924523533532,0.07614244004364176,-9.814534557181172,,,,,,,,,,
acc,1778674521.0,320.0,-5.268063572172922,0.0727882728739933,-9.814764547620307,,,,,,,,,,
acc,1778674521.0,320.0,-5.276915576766902,0.06839969088180094,-9.812578676666073,,,,,,,,,,
acc,1778674521.0,320.0,-5.285332170998231,0.06373152108608728,-9.81247146953248,,,,,,,,,,
acc,1778674521.0,320.0,-5.289838645472895,0.06151953394979613,-9.813075169376043,,,,,,,,,,
acc,1778674521.0,320.0,-5.295014101738103,0.058298247214732146,-9.809094319230205,,,,,,,,,,
acc,1778674521.0,320.0,-5.305005565066352,0.054751270933008744,-9.809338251499396,,,,,,,,,,
acc,1778674521.0,320.0,-5.313876834306262,0.05020712629597623,-9.809579967121241,,,,,,,,,,
acc,1778674521.0,320.0,-5.322312527220307,0.04290003827176157,-9.8081156476124,,,,,,,,,,
acc,1778674521.0,320.0,-5.332765858613121,0.03494941803934217,-9.80634515802691,,,,,,,,,,
acc,1778674521.0,320.0,-5.342769237259749,0.028845873573114873,-9.805655660810714,,,,,,,,,,
acc,1778674521.0,320.0,-5.350942380804362,0.026950897224795843,-9.803907525479001,,,,,,,,,,
acc,1778674521.0,320.0,-5.360106148415121,0.026138044467815664,-9.803240179373415,,,,,,,,,,
acc,1778674521.0,320.0,-5.370571014700548,0.024977616388049396,-9.800094128368562,,,,,,,,,,
acc,1778674521.0,320.0,-5.379875881593438,0.02382773328317018,-9.799106464219742,,,,,,,,,,
acc,1778674521.0,320.0,-5.389096193839158,0.020239024541218408,-9.796672415258339,,,,,,,,,,
acc,1778674522.0,321.0,-5.3972033195919025,0.017037897820516082,-9.79532538850456,,,,,,,,,,
acc,1778674522.0,321.0,-5.407331078602529,0.01177155633261356,-9.794700526028626,,,,,,,,,,
acc,1778674522.0,321.0,-5.418396205431673,0.007937441951035018,-9.795075256689472,,,,,,,,,,
acc,1778674522.0,321.0,-5.430070714622821,0.005203063273538774,-9.791967907160517,,,,,,,,,,
acc,1778674522.0,321.0,-5.439899802963636,0.00423287430100936,-9.795491173545301,,,,,,,,,,
acc,1778674522.0,321.0,-5.451023935003181,0.002561559751755884,-9.795503748568644,,,,,,,,,,
acc,1778674522.0,321.0,-5.461692018657927,0.0029997365065389425,-9.799704807898216,,,,,,,,,,
acc,1778674522.0,321.0,-5.471908198105714,0.002723998756605324,-9.801808891232328,,,,,,,,,,
acc,1778674522.0,321.0,-5.4823865035072386,0.001066395581615951,-9.805242731192008,,,,,,,,,,
acc,1778674522.0,321.0,-5.492769591066755,-0.0009311065390458667,-9.808006423364734,,,,,,,,,,
acc,1778674522.0,321.0,-5.500289583870233,-0.004969257435913218,-9.811774401656363,,,,,,,,,,
acc,1778674522.0,321.0,-5.508096212342782,-0.010710055073992794,-9.811284037819068,,,,,,,,,,
acc,1778674522.0,321.0,-5.515831900880646,-0.012920010391682201,-9.816761564853135,,,,,,,,,,
acc,1778674522.0,321.0,-5.525556103558651,-0.015819816254188473,-9.818710651039236,,,,,,,,,,
acc,1778674522.0,321.0,-5.534872464496835,-0.015924538111477145,-9.823410767751914,,,,,,,,,,
acc,1778674522.0,321.0,-5.544104166350045,-0.014963404726756243,-9.826044858781486,,,,,,,,,,
acc,1778674522.0,321.0,-5.551157674644074,-0.015750338178765907,-9.82964891925706,,,,,,,,,,
acc,1778674522.0,321.0,-5.558147086714871,-0.014790787777053026,-9.830770963534455,,,,,,,,,,
acc,1778674522.0,321.0,-5.565427955914304,-0.014194927844989222,-9.835042009938586,,,,,,,,,,
acc,1778674522.0,321.0,-5.576121337660993,-0.013249511676625752,-9.83757040623526,,,,,,,,,,
acc,1778674522.0,321.0,-5.585297681723224,-0.013022619348135308,-9.842844568752328,,,,,,,,,,
acc,1778674522.0,321.0,-5.593361229813555,-0.014892092584838165,-9.847715833315027,,,,,,,,,,
acc,1778674522.0,321.0,-5.601706474206256,-0.012555970138045786,-9.84799926268437,,,,,,,,,,
acc,1778674522.0,321.0,-5.6078815804357856,-0.010241076364174163,-9.85211375310417,,,,,,,,,,
acc,1778674522.0,321.0,-5.612616201561517,-0.008976627592485797,-9.851966761793406,,,,,,,,,,
acc,1778674522.0,321.0,-5.61940210226746,-0.00704923070419837,-9.852176068021512,,,,,,,,,,
acc,1778674522.0,321.0,-5.6261263385412175,-0.006523719383158772,-9.851070099027147,,,,,,,,,,
acc,1778674522.0,321.0,-5.6299852342956225,-0.005648012563146775,-9.848518811275756,,,,,,,,,,
acc,1778674522.0,321.0,-5.633099131023223,-0.008968870886310999,-9.845990707434021,,,,,,,,,,
acc,1778674522.0,321.0,-5.638279035067355,-0.011904581211363119,-9.842065711429138,,,,,,,,,,
acc,1778674522.0,321.0,-5.642737430262984,-0.0109799777589274,-9.840306189592635,,,,,,,,,,
acc,1778674522.0,321.0,-5.647155311396717,-0.009034376169768354,-9.837852714994176,,,,,,,,,,
acc,1778674522.0,321.0,-5.651533046625705,-0.0067514836436423035,-9.83684140085345,,,,,,,,,,
acc,1778674522.0,321.0,-5.655516038958129,-0.007613039935524575,-9.83757861858178,,,,,,,,,,
acc,1778674522.0,321.0,-5.660492237414651,-0.009531670727812327,-9.834440006204412,,,,,,,,,,
acc,1778674522.0,321.0,-5.665778187348861,-0.011432866653559904,-9.829626076376389,,,,,,,,,,
acc,1778674522.0,321.0,-5.668247361078447,-0.013636253585024466,-9.827269653464098,,,,,,,,,,
acc,1778674522.0,321.0,-5.669274231701281,-0.01826889262654627,-9.819077701277008,,,,,,,,,,
acc,1778674522.0,321.0,-5.672386074711008,-0.020090692199253697,-9.818556474819081,,,,,,,,,,
acc,1778674522.0,321.0,-5.676854001894202,-0.022925336950138108,-9.81285747165404,,,,,,,,,,
acc,1778674522.0,321.0,-5.680251928274455,-0.0253792610881265,-9.810298465586927,,,,,,,,,,
acc,1778674522.0,321.0,-5.68432890990882,-0.02919524799676606,-9.806733313442722,,,,,,,,,,
acc,1778674522.0,321.0,-5.686948978071617,-0.0319471583778864,-9.805649823825437,,,,,,,,,,
acc,1778674522.0,321.0,-5.690255169993162,-0.03396412908100717,-9.80315631466152,,,,,,,,,,
acc,1778674522.0,321.0,-5.6959805835721715,-0.0342234384878216,-9.802779768050577,,,,,,,,,,
acc,1778674522.0,321.0,-5.699914636719066,-0.033805953193933515,-9.802371139721782,,,,,,,,,,
acc,1778674522.0,321.0,-5.702393075213247,-0.033392261647171566,-9.799552462626073,,,,,,,,,,
acc,1778674522.0,321.0,-5.70836316083143,-0.03333730025704427,-9.797824293719607,,,,,,,,,,
acc,1778674522.0,321.0,-5.713924024565451,-0.033282838308735366,-9.797496199922216,,,,,,,,,,
acc,1778674522.0,321.0,-5.717695023163822,-0.03322887126374565,-9.795431745680363,,,,,,,,,,
acc,1778674522.0,321.0,-5.723526057844191,-0.032465461946771905,-9.793741022304626,,,,,,,,,,
acc,1778674522.0,321.0,-5.729304105099626,-0.03032461884425314,-9.791000768295572,,,,,,,,,,
acc,1778674522.0,321.0,-5.732935342767055,-0.030297533548718694,-9.78899533894591,,,,,,,,,,
acc,1778674522.0,321.0,-5.739657286644932,-0.029915723499620017,-9.787043636661306,,,,,,,,,,
acc,1778674522.0,321.0,-5.745608214607468,-0.030566783118509473,-9.787168469981008,,,,,,,,,,
acc,1778674522.0,321.0,-5.7508306273465255,-0.031211926467967048,-9.78764713980362,,,,,,,,,,
acc,1778674522.0,321.0,-5.75600558329383,-0.03149624551680592,-9.787092050695005,,,,,,,,,,
acc,1778674522.0,321.0,-5.760778551903186,-0.0317779809188659,-9.790020680398506,,,,,,,,,,
acc,1778674522.0,321.0,-5.766537547985145,-0.032412117944574347,-9.787314233670536,,,,,,,,,,
acc,1778674522.0,321.0,-5.772244211268266,-0.03375043423739301,-9.790276338722686,,,,,,,,,,
acc,1778674522.0,321.0,-5.777224578999177,-0.035751018285658125,-9.79001683423952,,,,,,,,,,
acc,1778674522.0,321.0,-5.77971042399586,-0.037058993527194446,-9.789759687909692,,,,,,,,,,
acc,1778674522.0,321.0,-5.783913021628652,-0.03871004480691151,-9.788475478205509,,,,,,,,,,
acc,1778674522.0,321.0,-5.788432391463137,-0.04173046372988343,-9.788906776698473,,,,,,,,,,
acc,1778674522.0,321.0,-5.793940093252556,-0.04191919937531987,-9.78901467940606,,,,,,,,,,
acc,1778674522.0,321.0,-5.798013383903908,-0.04455548538478756,-9.789121601586743,,,,,,,,,,
acc,1778674522.0,321.0,-5.799955356357855,-0.044399082239566824,-9.788872590360834,,,,,,,,,,
acc,1778674522.0,321.0,-5.8039739854756,-0.04456356777951003,-9.78859033848587,,,,,,,,,,
acc,1778674522.0,321.0,-5.808666020330762,-0.047530794917842636,-9.790120982042259,,,,,,,,,,
acc,1778674522.0,321.0,-5.812250523559231,-0.047666822151877494,-9.789223945366542,,,,,,,,,,
acc,1778674522.0,321.0,-5.8161574247848336,-0.049895916919822716,-9.788938500680802,,,,,,,,,,
acc,1778674522.0,321.0,-5.820028823456414,-0.050365413751831456,-9.790075515198605,,,,,,,,,,
acc,1778674522.0,321.0,-5.823865042190694,-0.04735197869345742,-9.790847235719433,,,,,,,,,,
acc,1778674522.0,321.0,-5.828021362460632,-0.04748963085479516,-9.79125698172084,,,,,,,,,,
acc,1778674522.0,321.0,-5.831784951883669,-0.04485729022481903,-9.792017966091096,,,,,,,,,,
acc,1778674522.0,321.0,-5.836898702922612,-0.04224887003950716,-9.792417073503373,,,,,,,,,,
acc,1778674522.0,321.0,-5.8409365845089445,-0.04175845655333221,-9.79146367757097,,,,,,,,,,
acc,1778674522.0,321.0,-5.8449377733050145,-0.0388232341142076,-9.791867821878991,,,,,,,,,,
acc,1778674522.0,321.0,-5.848902602743374,-0.03729905540822242,-9.792658749819493,,,,,,,,,,
acc,1778674522.0,321.0,-5.852121470566681,-0.0375280598706496,-9.794471899660353,,,,,,,,,,
acc,1778674522.0,321.0,-5.857405391708847,-0.036370612380004365,-9.79523916398553,,,,,,,,,,
acc,1778674522.0,321.0,-5.861611887955874,-0.036288586307315476,-9.796709388732388,,,,,,,,,,
acc,1778674522.0,321.0,-5.8661351300610525,-0.0375916765729018,-9.795397520518284,,,,,,,,,,
acc,1778674522.0,321.0,-5.869197403521842,-0.03678862186334283,-9.796475841021868,,,,,,,,,,
acc,1778674522.0,321.0,-5.873651714994524,-0.03737722649038294,-9.79477562985616,,,,,,,,,,
acc,1778674522.0,321.0,-5.877355616864161,-0.03902538591503463,-9.794191266635517,,,,,,,,,,
acc,1778674522.0,321.0,-5.88102586086415,-0.04133300658233473,-9.793612213604453,,,,,,,,,,
acc,1778674522.0,321.0,-5.884307791063634,-0.04432959023725122,-9.79399683386648,,,,,,,,,,
acc,1778674522.0,321.0,-5.8882698214774996,-0.04484966904266461,-9.793384044225332,,,,,,,,,,
acc,1778674522.0,321.0,-5.892195848372045,-0.04398065995681839,-9.79341576702218,,,,,,,,,,
acc,1778674522.0,321.0,-5.896086198916297,-0.04035080577798106,-9.793482695910555,,,,,,,,,,
acc,1778674522.0,321.0,-5.900970606471125,-0.04023261113917198,-9.793158551374903,,,,,,,,,,
acc,1778674522.0,321.0,-5.90371632513552,-0.04043495797414088,-9.792588882771835,,,,,,,,,,
acc,1778674522.0,321.0,-5.90714702572824,-0.037511762377384295,-9.79060452551807,,,,,,,,,,
acc,1778674522.0,321.0,-5.911256483723323,-0.035999501210377025,-9.788602696945423,,,,,,,,,,
acc,1778674522.0,321.0,-5.916003036797075,-0.034500982169990736,-9.78835840108232,,,,,,,,,,
acc,1778674522.0,321.0,-5.920351486415794,-0.0333710421625403,-9.784637650626165,,,,,,,,,,
acc,1778674522.0,321.0,-5.923985982779004,-0.03711440647543325,-9.786914145427007,,,,,,,,,,
acc,1778674522.0,321.0,-5.927587451970654,-0.03876495417041572,-9.784271422646881,,,,,,,,,,
acc,1778674522.0,321.0,-5.9294168613876295,-0.03898063780601726,-9.786870712831364,,,,,,,,,,
acc,1778674522.0,321.0,-5.934708321244863,-0.036425619609434474,-9.7866421557474,,,,,,,,,,
acc,1778674522.0,321.0,-5.937857393280791,-0.03492322837661934,-9.788545473547378,,,,,,,,,,
acc,1778674522.0,321.0,-5.942007249335612,-0.036238725824264545,-9.787307791970514,,,,,,,,,,
acc,1778674522.0,321.0,-5.945089995002482,-0.033708623763440984,-9.787430224870231,,,,,,,,,,
acc,1778674522.0,321.0,-5.948144727332972,-0.03223092224857933,-9.785137774193757,,,,,,,,,,
acc,1778674522.0,321.0,-5.9501067973694,-0.033570885051654724,-9.782511193552216,,,,,,,,,,
acc,1778674522.0,321.0,-5.951376608601991,-0.034898671427382566,-9.782286748573942,,,,,,,,,,
acc,1778674522.0,321.0,-5.95437421360392,-0.03585942115630653,-9.779331104729195,,,,,,,,,,
acc,1778674522.0,321.0,-5.956989617173534,-0.032977804113441596,-9.779526022885694,,,,,,,,,,
acc,1778674522.0,321.0,-5.958196883271864,-0.02909297265388875,-9.778015331436334,,,,,,,,,,
acc,1778674522.0,321.0,-5.960067607977154,-0.02417853967835589,-9.774743540770814,,,,,,,,,,
acc,1778674522.0,321.0,-5.960891933079878,-0.021758030200248565,-9.774980146753405,,,,,,,,,,
acc,1778674522.0,321.0,-5.9624187000746245,-0.022128258098016072,-9.770742031524586,,,,,,,,,,
acc,1778674522.0,321.0,-5.963931593126605,-0.021820683396353874,-9.770376064933723,,,,,,,,,,
acc,1778674522.0,321.0,-5.964365843882295,-0.02325524547073868,-9.770013423931864,,,,,,,,,,
acc,1778674522.0,321.0,-5.966890452123099,-0.021198096965172344,-9.76511050935524,,,,,,,,,,
acc,1778674522.0,321.0,-5.965913444384969,-0.020898974766300777,-9.764760213735498,,,,,,,,,,
acc,1778674522.0,321.0,-5.96739458021145,-0.021277009018598192,-9.762318806807267,,,,,,,,,,
acc,1778674522.0,321.0,-5.9660580205255895,-0.019912275308685154,-9.76128395621413,,,,,,,,,,
acc,1778674522.0,321.0,-5.968567251720561,-0.02239357941371673,-9.760258509451349,,,,,,,,,,
acc,1778674522.0,321.0,-5.968604406739901,-0.022083593701402896,-9.760236277682658,,,,,,,,,,
acc,1778674522.0,321.0,-5.967966794928048,-0.025929528579729615,-9.760214247937121,,,,,,,,,,
acc,1778674522.0,321.0,-5.96768993896218,-0.028001182205893173,-9.758488580028917,,,,,,,,,,
acc,1778674522.0,321.0,-5.969154931534718,-0.026575345009340005,-9.756814096951057,,,,,,,,,,
acc,1778674522.0,321.0,-5.970926078936002,-0.02864113001133698,-9.757888068545324,,,,,,,,,,
acc,1778674522.0,321.0,-5.970267369769602,-0.02791941016689659,-9.756219042399083,,,,,,,,,,
acc,1778674522.0,321.0,-5.970999008226797,-0.030327952328400486,-9.753464785052454,,,,,,,,,,
acc,1778674522.0,321.0,-5.972078969050239,-0.029235933231467188,-9.7521554213124,,,,,,,,,,
acc,1778674523.0,322.0,-5.973149116120507,-0.029538208391677954,-9.748763652368126,,,,,,,,,,
acc,1778674523.0,322.0,-5.975948871323581,-0.027423965744736323,-9.748597406340165,,,,,,,,,,
acc,1778674523.0,322.0,-5.978013252120217,-0.028452639147339722,-9.749036111488632,,,,,,,,,,
acc,1778674523.0,322.0,-5.981123768025952,-0.025638328574826983,-9.746027659010995,,,,,,,,,,
acc,1778674523.0,322.0,-5.983851056465736,-0.024233962958453075,-9.74482137182257,,,,,,,,,,
acc,1778674523.0,322.0,-5.989002827007783,-0.02216792072307916,-9.743590551972002,,,,,,,,,,
acc,1778674523.0,322.0,-5.992368449994726,-0.018381320193969434,-9.741660984107863,,,,,,,,,,
acc,1778674523.0,322.0,-5.997442821805265,-0.021941430709523146,-9.741559281005632,,,,,,,,,,
acc,1778674523.0,322.0,-6.000376778529408,-0.02163555373616213,-9.74348180785478,,,,,,,,,,
acc,1778674523.0,322.0,-6.005378377552371,-0.024101198160371522,-9.742618131672872,,,,,,,,,,
acc,1778674523.0,322.0,-6.008914661068822,-0.025869998650813943,-9.747299769362687,,,,,,,,,,
acc,1778674523.0,322.0,-6.013128742531451,-0.026912793164333274,-9.749170131601621,,,,,,,,,,
acc,1778674523.0,322.0,-6.017304530054094,-0.02933048258486196,-9.74999409754082,,,,,,,,,,
acc,1778674523.0,322.0,-6.021442371619097,-0.028957460279077675,-9.752940373914901,,,,,,,,,,
acc,1778674523.0,322.0,-6.026926982970749,-0.02926226596036798,-9.752736173443123,,,,,,,,,,
acc,1778674523.0,322.0,-6.030267451336128,-0.02924483441321358,-9.756651437893225,,,,,,,,,,
acc,1778674523.0,322.0,-6.034642467910868,-0.030256961327940132,-9.757052449305878,,,,,,,,,,
acc,1778674523.0,322.0,-6.036173491899349,-0.028491158146324327,-9.762312862084032,,,,,,,,,,
acc,1778674523.0,322.0,-6.041524239526407,-0.0260314593331418,-9.76092309465445,,,,,,,,,,
acc,1778674523.0,322.0,-6.044057622325915,-0.019760484965551106,-9.764479990363522,,,,,,,,,,
acc,1778674523.0,322.0,-6.048307325713019,-0.01702516120656546,-9.76477436828043,,,,,,,,,,
acc,1778674523.0,322.0,-6.0486847751963415,-0.014669655489087594,-9.766876401651514,,,,,,,,,,
acc,1778674523.0,322.0,-6.04973322393782,-0.016524161703178785,-9.76580013557417,,,,,,,,,,
acc,1778674523.0,322.0,-6.052546981426921,-0.016622483064804162,-9.766118011509727,,,,,,,,,,
acc,1778674523.0,322.0,-6.053240866351186,-0.01636494010265674,-9.767107437143387,,,,,,,,,,
acc,1778674523.0,322.0,-6.054247913263947,-0.01610973746894099,-9.76357979718941,,,,,,,,,,
acc,1778674523.0,322.0,-6.0521221053838135,-0.010283884939815115,-9.766367114983963,,,,,,,,,,
acc,1778674523.0,322.0,-6.054204222135602,-0.007634676354523022,-9.762810708080421,,,,,,,,,,
acc,1778674523.0,322.0,-6.052788753010985,-0.006074444997254336,-9.768728718310372,,,,,,,,,,
acc,1778674523.0,322.0,-6.053480440922967,-0.009036457127821458,-9.765541316417071,,,,,,,,,,
acc,1778674523.0,322.0,-6.051361607171139,-0.01300095310195723,-9.767991342198016,,,,,,,,,,
acc,1778674523.0,322.0,-6.0520662637538,-0.01834928843433578,-9.765520573584086,,,,,,,,,,
acc,1778674523.0,322.0,-6.049605319049035,-0.021554728233367782,-9.766515428217202,,,,,,,,,,
acc,1778674523.0,322.0,-6.049261040847496,-0.025760439814730363,-9.762957673574238,,,,,,,,,,
acc,1778674523.0,322.0,-6.047535520230248,-0.025064897204622554,-9.762307473657488,,,,,,,,,,
acc,1778674523.0,322.0,-6.047919983215472,-0.024020704222779465,-9.75747458416697,,,,,,,,,,
acc,1778674523.0,322.0,-6.046916581613705,-0.022985999966586075,-9.757868115534647,,,,,,,,,,
acc,1778674523.0,322.0,-6.046951698116038,-0.023700030905434082,-9.755453843718218,,,,,,,,,,
acc,1778674523.0,322.0,-6.045247162815356,-0.020928907957630603,-9.756540176111793,,,,,,,,,,
acc,1778674523.0,322.0,-6.044268049501245,-0.014349330334503464,-9.754173465824698,,,,,,,,,,
acc,1778674523.0,322.0,-6.045711604497846,-0.008184513103775454,-9.75395806007773,,,,,,,,,,
acc,1778674523.0,322.0,-6.046467603432257,-0.003105116472210786,-9.753034679113469,,,,,,,,,,
acc,1778674523.0,322.0,-6.047891170778864,-0.0029704076833856202,-9.75211968903937,,,,,,,,,,
acc,1778674523.0,322.0,-6.049301801972679,-0.002126990373057345,-9.753271813715333,,,,,,,,,,
acc,1778674523.0,322.0,-6.0517645089808765,-0.005834806200175594,-9.755833334153001,,,,,,,,,,
acc,1778674523.0,322.0,-6.053139942616456,-0.00670469239904704,-9.7621697195899,,,,,,,,,,
acc,1778674523.0,322.0,-6.054857848359789,-0.010015948240553978,-9.761136223784725,,,,,,,,,,
acc,1778674523.0,322.0,-6.0569151050324335,-0.004245470830939596,-9.76465568838486,,,,,,,,,,
acc,1778674523.0,322.0,-6.059663599768449,-0.002006095929915482,-9.766368334985263,,,,,,,,,,
acc,1778674523.0,322.0,-6.063416518607638,-0.0001420414001292356,-9.768810845528337,,,,,,,,,,
acc,1778674523.0,322.0,-6.066425401517618,-0.0024480294529301413,-9.771905598919469,,,,,,,,,,
acc,1778674523.0,322.0,-6.0673126387393035,-0.005442995312538828,-9.776711562551613,,,,,,,,,,
acc,1778674523.0,322.0,-6.068546784376653,-0.004932080121276313,-9.776291350014969,,,,,,,,,,
acc,1778674523.0,322.0,-6.068030382471036,-0.008614405707646865,-9.779957070948077,,,,,,,,,,
acc,1778674523.0,322.0,-6.067873634956145,-0.007719700610766579,-9.781211204360716,,,,,,,,,,
acc,1778674523.0,322.0,-6.0705225480189915,-0.007898029322858638,-9.780998572567098,,,,,,,,,,
acc,1778674523.0,322.0,-6.073466857458884,-0.0063354048464787545,-9.78327264176385,,,,,,,,,,
acc,1778674523.0,322.0,-6.076384411552993,-0.004786980154139808,-9.786235978818059,,,,,,,,,,
acc,1778674523.0,322.0,-6.077181149877884,-0.0008033517950740291,-9.786368151429295,,,,,,,,,,
acc,1778674523.0,322.0,-6.077651180716638,-0.0017189595119771095,-9.791752624488174,,,,,,,,,,
acc,1778674523.0,322.0,-6.078116940320364,-0.000886914285115493,-9.794638902770327,,,,,,,,,,
acc,1778674523.0,322.0,-6.078897934917453,-0.004605998847861423,-9.792955384163923,,,,,,,,,,
acc,1778674523.0,322.0,-6.078287470681351,-0.005132089611754133,-9.792352058335736,,,,,,,,,,
acc,1778674523.0,322.0,-6.077327582955661,-0.004269028801710388,-9.790369853185005,,,,,,,,,,
acc,1778674523.0,322.0,-6.076731388724269,-0.001674478054603865,-9.790819431572547,,,,,,,,,,
acc,1778674523.0,322.0,-6.074046308640383,0.0012514574272823498,-9.793039751628854,,,,,,,,,,
acc,1778674523.0,322.0,-6.072805493523697,0.0065645845837081825,-9.789986393815587,,,,,,,,,,
acc,1778674523.0,322.0,-6.069481650313692,0.009415650567947811,-9.789694020666794,,,,,,,,,,
acc,1778674523.0,322.0,-6.066862449602079,0.007697239645353946,-9.785322198505291,,,,,,,,,,
acc,1778674523.0,322.0,-6.063592611651391,0.009473118624615627,-9.784788236487032,,,,,,,,,,
acc,1778674523.0,322.0,-6.062766258134513,0.008464127206240197,-9.781454899554582,,,,,,,,,,
acc,1778674523.0,322.0,-6.061627946391113,0.012682302697876405,-9.783014889405303,,,,,,,,,,
acc,1778674523.0,322.0,-6.061529378695071,0.011999110756766265,-9.781117532396275,,,,,,,,,,
acc,1778674523.0,322.0,-6.058662973957298,0.013061459763372222,-9.781970655311802,,,,,,,,,,
acc,1778674523.0,322.0,-6.0547577131357295,0.013404222421386228,-9.775503715079681,,,,,,,,,,
acc,1778674523.0,322.0,-6.0502135107679536,0.01200453765974579,-9.778573143796512,,,,,,,,,,
acc,1778674523.0,322.0,-6.0481243640708575,0.010972542888332722,-9.775296284268903,,,,,,,,,,
acc,1778674523.0,322.0,-6.045024801686419,0.011689258683537696,-9.775137402169316,,,,,,,,,,
acc,1778674523.0,322.0,-6.04159844367782,0.00927575798267039,-9.771217325423061,,,,,,,,,,
acc,1778674523.0,322.0,-6.0364638796818255,0.00929796005943207,-9.76903670928207,,,,,,,,,,
acc,1778674523.0,322.0,-6.030346574125365,0.008290560331766455,-9.76723087047513,,,,,,,,,,
acc,1778674523.0,322.0,-6.024959295643902,0.010770980359167497,-9.766506345072495,,,,,,,,,,
acc,1778674523.0,322.0,-6.020685875602547,0.014613231380687262,-9.761635299880993,,,,,,,,,,
acc,1778674523.0,322.0,-6.017835650543516,0.01632626378870878,-9.764120820159118,,,,,,,,,,
acc,1778674523.0,322.0,-6.01291702232351,0.01699432958433116,-9.76129475830334,,,,,,,,,,
acc,1778674523.0,322.0,-6.007688128581379,0.015207050163575821,-9.761014640391572,,,,,,,,,,
acc,1778674523.0,322.0,-6.003571654015119,0.012051650171941335,-9.758216804819526,,,,,,,,,,
acc,1778674523.0,322.0,-5.999812053834984,0.006156181910194547,-9.75725472405889,,,,,,,,,,
acc,1778674523.0,322.0,-5.994027808471389,0.002373095769284494,-9.758360185959921,,,,,,,,,,
acc,1778674523.0,322.0,-5.988296125342461,-0.0037893839092961986,-9.75104290291037,,,,,,,,,,
acc,1778674523.0,322.0,-5.985385268632118,-0.005032828000662493,-9.755293021724325,,,,,,,,,,
acc,1778674523.0,322.0,-5.983210795913821,-0.004525640057763701,-9.752227711875543,,,,,,,,,,
acc,1778674523.0,322.0,-5.9807011120671785,-0.0033131283656032094,-9.75167501660211,,,,,,,,,,
acc,1778674523.0,322.0,-5.977859272289055,-0.0049158711180467855,-9.749317022340465,,,,,,,,,,
acc,1778674523.0,322.0,-5.975398218474958,-0.006149078664732288,-9.745915552000142,,,,,,,,,,
acc,1778674523.0,322.0,-5.971575166771361,-0.0098203452065212,-9.744674789197122,,,,,,,,,,
acc,1778674523.0,322.0,-5.9667219521680215,-0.01100898512150953,-9.743800272238145,,,,,,,,,,
acc,1778674523.0,322.0,-5.960528468482864,-0.009737558380043681,-9.744318063959751,,,,,,,,,,
acc,1778674523.0,322.0,-5.9588993403463055,-0.0067383525826828165,-9.744156712160864,,,,,,,,,,
acc,1778674523.0,322.0,-5.954161312724297,-0.0023820300701480647,-9.743677359173702,,,,,,,,,,
acc,1778674523.0,322.0,-5.949466340212103,-0.003283292117669295,-9.74352182954747,,,,,,,,,,
acc,1778674523.0,322.0,-5.944139593286316,0.00033170114846256754,-9.746171949423124,,,,,,,,,,
acc,1778674523.0,322.0,-5.941275022204986,-0.001304162671137109,-9.744928856701797,,,,,,,,,,
acc,1778674523.0,322.0,-5.9377620526872565,-0.00430952299493872,-9.7454363928208,,,,,,,,,,
acc,1778674523.0,322.0,-5.934955435196003,-0.011831142063225582,-9.745584355114932,,,,,,,,,,
acc,1778674523.0,322.0,-5.931819360050362,-0.017864545871607154,-9.749884076501598,,,,,,,,,,
acc,1778674523.0,322.0,-5.928037344576094,-0.022103790623044815,-9.751766449126789,,,,,,,,,,
acc,1778674523.0,322.0,-5.92290532588647,-0.024920141862338006,-9.753986687233919,,,,,,,,,,
acc,1778674523.0,322.0,-5.917464980783556,-0.02561659698344013,-9.749903848179228,,,,,,,,,,
acc,1778674523.0,322.0,-5.911719101984819,-0.023892961447486195,-9.749336775815701,,,,,,,,,,
acc,1778674523.0,322.0,-5.905315504142907,-0.020765123554250253,-9.74281142237924,,,,,,,,,,
acc,1778674523.0,322.0,-5.8975857348531155,-0.021499335898924755,-9.740179001959644,,,,,,,,,,
acc,1778674523.0,322.0,-5.892020501500799,-0.02258184721613106,-9.737570502707065,,,,,,,,,,
acc,1778674523.0,322.0,-5.886505840190663,-0.022270150693134778,-9.735340678107807,,,,,,,,,,
acc,1778674523.0,322.0,-5.881041291367589,-0.020896392189956047,-9.73455098150254,,,,,,,,,,
acc,1778674523.0,322.0,-5.875626399652497,-0.016766375398284305,-9.7338039553391,,,,,,,,,,
acc,1778674523.0,322.0,-5.869195819395045,-0.012673888638169137,-9.73931112469582,,,,,,,,,,
acc,1778674523.0,322.0,-5.86562790180022,-0.007908658233778879,-9.73781090982035,,,,,,,,,,
acc,1778674523.0,322.0,-5.856874408310459,-0.009114669910569632,-9.745659934942157,,,,,,,,,,
acc,1778674523.0,322.0,-5.843337422742493,-0.012404025938782433,-9.751059367378764,,,,,,,,,,
acc,1778674523.0,322.0,-5.825379880762012,-0.015663491135621065,-9.753286030834131,,,,,,,,,,
acc,1778674523.0,322.0,-5.806201150528975,-0.016444062716491445,-9.755811927705977,,,,,,,,,,
acc,1778674523.0,322.0,-5.78197869291947,-0.011644572221718871,-9.75760493876983,,,,,,,,,,
acc,1778674523.0,322.0,-5.760745080852562,-0.004474924398798905,-9.757003379895671,,,,,,,,,,
acc,1778674523.0,322.0,-5.738320059720493,0.006108237215151361,-9.760879867614637,,,,,,,,,,
acc,1778674523.0,322.0,-5.7133300760242385,0.01382649544832333,-9.761206960340202,,,,,,,,,,
acc,1778674523.0,322.0,-5.684378581749012,0.023213949489830358,-9.761921545950184,,,,,,,,,,
acc,1778674524.0,323.0,-5.65288593751026,0.026233196894860936,-9.760925799698166,,,,,,,,,,
acc,1778674524.0,323.0,-5.620295100357875,0.02716619879764067,-9.761962407667568,,,,,,,,,,
acc,1778674524.0,323.0,-5.586616049722159,0.027025827974651834,-9.759901386603458,,,,,,,,,,
acc,1778674524.0,323.0,-5.55324304525898,0.027951627129593787,-9.762722130599611,,,,,,,,,,
acc,1778674524.0,323.0,-5.520173305884585,0.03163775524006834,-9.762429041959702,,,,,,,,,,
acc,1778674524.0,323.0,-5.485664743103445,0.03809462317651097,-9.762742057124571,,,,,,,,,,
acc,1778674524.0,323.0,-5.450085393475981,0.047261549397283345,-9.76763129110112,,,,,,,,,,
acc,1778674524.0,323.0,-5.413090025615882,0.0521565764942359,-9.769707363202382,,,,,,,,,,
acc,1778674524.0,323.0,-5.374336545302017,0.05459334175983478,-9.771409598889457,,,,,,,,,,
acc,1778674524.0,323.0,-5.334550852292214,0.05384876585030822,-9.775865107946016,,,,,,,,,,
acc,1778674524.0,323.0,-5.292322461175678,0.0461536161828327,-9.778540787407232,,,,,,,,,,
acc,1778674524.0,323.0,-5.245259798128089,0.03817343162651774,-9.778707392922165,,,,,,,,,,
acc,1778674524.0,323.0,-5.1996542000311345,0.03619369479213572,-9.776849178732306,,,,,,,,,,
acc,1778674524.0,323.0,-5.150984360919025,0.03980492609785209,-9.774652879529768,,,,,,,,,,
acc,1778674524.0,323.0,-5.100697991241632,0.04931128141976231,-9.764454304170757,,,,,,,,,,
acc,1778674524.0,323.0,-5.0501586390103075,0.05280331140901763,-9.75541329907948,,,,,,,,,,
acc,1778674524.0,323.0,-4.997629279516044,0.052784934386720474,-9.747519354342577,,,,,,,,,,
acc,1778674524.0,323.0,-4.9410691961317,0.05731029322150751,-9.737212374203573,,,,,,,,,,
acc,1778674524.0,323.0,-4.884668111154956,0.05796089326951705,-9.729093358557146,,,,,,,,,,
acc,1778674524.0,323.0,-4.83016392151584,0.058605581225274136,-9.72420731947708,,,,,,,,,,
acc,1778674524.0,323.0,-4.773031315362742,0.05541077458521829,-9.72387375500949,,,,,,,,,,
acc,1778674524.0,323.0,-4.715033510161877,0.04979573427516369,-9.71722482578273,,,,,,,,,,
acc,1778674524.0,323.0,-4.656852806370921,0.04668098392778988,-9.712766105108672,,,,,,,,,,
acc,1778674524.0,323.0,-4.5971064951051,0.050551877565858105,-9.704514274303323,,,,,,,,,,
acc,1778674524.0,323.0,-4.537903106799292,0.06063500304545538,-9.694953058111706,,,,,,,,,,
acc,1778674524.0,323.0,-4.4799476404724174,0.07378569972745624,-9.688247458740236,,,,,,,,,,
acc,1778674524.0,323.0,-4.4218088908162105,0.08472259976043771,-9.683022659343202,,,,,,,,,,
acc,1778674524.0,323.0,-4.363524017711463,0.09069707840083013,-9.67997513632189,,,,,,,,,,
acc,1778674524.0,323.0,-4.305058863729255,0.09938599886240082,-9.679014115746046,,,,,,,,,,
acc,1778674524.0,323.0,-4.244675716249419,0.1083509327678134,-9.67490262105712,,,,,,,,,,
acc,1778674524.0,323.0,-4.184166849560299,0.1151400975401193,-9.673632724265245,,,,,,,,,,
acc,1778674524.0,323.0,-4.124562797050901,0.12325193005913035,-9.674788138158075,,,,,,,,,,
acc,1778674524.0,323.0,-4.066174813051036,0.1333843527825609,-9.678417821410353,,,,,,,,,,
acc,1778674524.0,323.0,-4.009027341338569,0.1441346334196695,-9.679529752466374,,,,,,,,,,
acc,1778674524.0,323.0,-3.9530736057603644,0.15372233036763136,-9.686240051608404,,,,,,,,,,
acc,1778674524.0,323.0,-3.8965989294359127,0.15697549540872704,-9.691434004621676,,,,,,,,,,
acc,1778674524.0,323.0,-3.839927513639283,0.15774983317360436,-9.694876921145603,,,,,,,,,,
acc,1778674524.0,323.0,-3.7844810114382246,0.1588720961982591,-9.700737825817379,,,,,,,,,,
acc,1778674524.0,323.0,-3.7288284266050895,0.15927422842970326,-9.707255404275678,,,,,,,,,,
acc,1778674524.0,323.0,-3.6743914971101708,0.15931773556934337,-9.713358785739997,,,,,,,,,,
acc,1778674524.0,323.0,-3.61973931085692,0.1600707890752622,-9.719761675797127,,,,,,,,,,
acc,1778674524.0,323.0,-3.5649093273602164,0.16220136130217752,-9.72642584932415,,,,,,,,,,
acc,1778674524.0,323.0,-3.5098676497538746,0.16640687626935424,-9.731964570180278,,,,,,,,,,
acc,1778674524.0,323.0,-3.457065485222879,0.17057417514278286,-9.736743018195495,,,,,,,,,,
acc,1778674524.0,323.0,-3.404068702959062,0.17296427251469063,-9.743962812559682,,,,,,,,,,
acc,1778674524.0,323.0,-3.351872977168813,0.17533265074258436,-9.748667734340946,,,,,,,,,,
acc,1778674524.0,323.0,-3.3018908938105227,0.17665009805599877,-9.754039834484423,,,,,,,,,,
acc,1778674524.0,323.0,-3.254102346297622,0.17515134645349248,-9.760037546801358,,,,,,,,,,
acc,1778674524.0,323.0,-3.205363688989042,0.17366621421322442,-9.768784993258226,,,,,,,,,,
acc,1778674524.0,323.0,-3.1567129557115035,0.17357893939596908,-9.774648714286535,,,,,,,,,,
acc,1778674524.0,323.0,-3.108504318347998,0.17491232292585362,-9.780139683460533,,,,,,,,,,
acc,1778674524.0,323.0,-3.0617986630072496,0.1765530663167958,-9.785935726302148,,,,,,,,,,
acc,1778674524.0,323.0,-3.016191866663873,0.1781789000465633,-9.78986876921463,,,,,,,,,,
acc,1778674524.0,323.0,-2.9709995055603238,0.1784055886924267,-9.794866469879578,,,,,,,,,,
acc,1778674524.0,323.0,-2.924478471896856,0.1751515429352241,-9.798363396121516,,,,,,,,,,
acc,1778674524.0,323.0,-2.8777057520863174,0.166709069092577,-9.802573972307389,,,,,,,,,,
acc,1778674524.0,323.0,-2.8320324916100086,0.1621769493981926,-9.80777568645561,,,,,,,,,,
acc,1778674524.0,323.0,-2.7881941356109623,0.1632589826077552,-9.811190799228497,,,,,,,,,,
acc,1778674524.0,323.0,-2.746493486560268,0.16536058328056774,-9.814894345814938,,,,,,,,,,
acc,1778674524.0,323.0,-2.7044618444165254,0.16467435368816394,-9.817925302936104,,,,,,,,,,
acc,1778674524.0,323.0,-2.6621022169595543,0.16434932173218988,-9.818798910342247,,,,,,,,,,
acc,1778674524.0,323.0,-2.620482479045023,0.16818035611267446,-9.817605779061521,,,,,,,,,,
acc,1778674524.0,323.0,-2.5785665071467267,0.17268650090330895,-9.820612097015276,,,,,,,,,,
acc,1778674524.0,323.0,-2.537705869732484,0.1726081288758383,-9.820076927331968,,,,,,,,,,
acc,1778674524.0,323.0,-2.497571509418809,0.1680224036131136,-9.82061151521721,,,,,,,,,,
acc,1778674524.0,323.0,-2.4581568173385104,0.16592761478407686,-9.81659767636902,,,,,,,,,,
acc,1778674524.0,323.0,-2.418390359359308,0.168359936089365,-9.813330244461579,,,,,,,,,,
acc,1778674524.0,323.0,-2.3803696355693864,0.17737252351152308,-9.813216207748884,,,,,,,,,,
acc,1778674524.0,323.0,-2.3430493821937475,0.1873681158055336,-9.813067712943571,,,,,,,,,,
acc,1778674524.0,323.0,-2.30713315750842,0.19272930791615717,-9.812317127063633,,,,,,,,,,
acc,1778674524.0,323.0,-2.270478414095546,0.19630244945344372,-9.810117993145294,,,,,,,,,,
acc,1778674524.0,323.0,-2.231742977340652,0.19221134327101846,-9.807228919512593,,,,,,,,,,
acc,1778674524.0,323.0,-2.1933595348344332,0.18325887381376235,-9.807844764654341,,,,,,,,,,
acc,1778674524.0,323.0,-2.1577386680003685,0.17474272754016273,-9.81097527664996,,,,,,,,,,
acc,1778674524.0,323.0,-2.1248907582056145,0.17535561201948527,-9.815071246939914,,,,,,,,,,
acc,1778674524.0,323.0,-2.0951100746212634,0.1769923271810473,-9.816680731267262,,,,,,,,,,
acc,1778674524.0,323.0,-2.062476308619415,0.18106343460296348,-9.819979428311106,,,,,,,,,,
acc,1778674524.0,323.0,-2.02768982482729,0.18683687999320625,-9.8194500077755,,,,,,,,,,
acc,1778674524.0,323.0,-1.9932194506043543,0.1873398632435827,-9.816831094614363,,,,,,,,,,
acc,1778674524.0,323.0,-1.9604821786879207,0.18712833409449658,-9.81806961610279,,,,,,,,,,
acc,1778674524.0,323.0,-1.9294267657786963,0.18624429795273592,-9.817273577240046,,,,,,,,,,
acc,1778674524.0,323.0,-1.8990085194572246,0.1874625896248229,-9.820282913957085,,,,,,,,,,
acc,1778674524.0,323.0,-1.867801793521615,0.19005418142125396,-9.823584371830542,,,,,,,,,,
acc,1778674524.0,323.0,-1.8368786474025034,0.19471652660889255,-9.823732125310965,,,,,,,,,,
acc,1778674524.0,323.0,-1.8065914659445848,0.19827161001591212,-9.820399861683848,,,,,,,,,,
acc,1778674524.0,323.0,-1.7765795082758424,0.20388868234601684,-9.820221582385853,,,,,,,,,,
acc,1778674524.0,323.0,-1.7468402733997943,0.20980968242693557,-9.820364399637148,,,,,,,,,,
acc,1778674524.0,323.0,-1.7170163212733165,0.21219820311340168,-9.820860880861954,,,,,,,,,,
acc,1778674524.0,323.0,-1.6892027161893184,0.21804369343467178,-9.824831515857591,,,,,,,,,,
acc,1778674524.0,323.0,-1.6630617224337279,0.2231261323461182,-9.827807666905338,,,,,,,,,,
acc,1778674524.0,323.0,-1.6360933719937292,0.2229443793019752,-9.83210564072006,,,,,,,,,,
acc,1778674524.0,323.0,-1.6086956574811972,0.21964057428226566,-9.835619131260666,,,,,,,,,,
acc,1778674524.0,323.0,-1.5811919389130615,0.21324308780328524,-9.838106788540957,,,,,,,,,,
acc,1778674524.0,323.0,-1.55429312128411,0.2121217432981712,-9.836773698272182,,,,,,,,,,
acc,1778674524.0,323.0,-1.527958204329131,0.2158736248774699,-9.837511531161015,,,,,,,,,,
acc,1778674524.0,323.0,-1.5025725290256242,0.21994637436566677,-9.83678729054532,,,,,,,,,,
acc,1778674524.0,323.0,-1.476707604215585,0.22572145598747367,-9.836460096424434,,,,,,,,,,
acc,1778674524.0,323.0,-1.452497582807841,0.22761042242262022,-9.83755574082996,,,,,,,,,,
acc,1778674524.0,323.0,-1.4277976285647005,0.22738792001699365,-9.837896001969769,,,,,,,,,,
acc,1778674524.0,323.0,-1.403677097068152,0.22926174306398575,-9.83752323847556,,,,,,,,,,
acc,1778674524.0,323.0,-1.378710848668402,0.22834979660602492,-9.837508833195217,,,,,,,,,,
acc,1778674524.0,323.0,-1.3525871010978316,0.22776560454471617,-9.835080778774312,,,,,,,,,,
acc,1778674524.0,323.0,-1.32741067625341,0.2299909572938836,-9.83302975927898,,,,,,,,,,
acc,1778674524.0,323.0,-1.3031374713231278,0.23496482977296412,-9.831032872040197,,,,,,,,,,
acc,1778674524.0,323.0,-1.2790848403489863,0.2395740365742289,-9.827634265522436,,,,,,,,,,
acc,1778674524.0,323.0,-1.2545763406708268,0.24552572069976783,-9.828455149695287,,,,,,,,,,
acc,1778674524.0,323.0,-1.2302905531045816,0.2503584266443149,-9.827529232611562,,,,,,,,,,
acc,1778674524.0,323.0,-1.2062254538346147,0.2506391426256992,-9.824517435008486,,,,,,,,,,
acc,1778674524.0,323.0,-1.182024075662474,0.2519467077500391,-9.823946776981142,,,,,,,,,,
acc,1778674524.0,323.0,-1.157687647886173,0.2508286198939004,-9.81986713579105,,,,,,,,,,
acc,1778674524.0,323.0,-1.1332174068072007,0.2514600249379744,-9.818309335625392,,,,,,,,,,
acc,1778674524.0,323.0,-1.1093244919524745,0.2520856923174555,-9.812967549539914,,,,,,,,,,
acc,1778674524.0,323.0,-1.0863586279397222,0.25128580890300434,-9.809378143322213,,,,,,,,,,
acc,1778674524.0,323.0,-1.0622170960749004,0.25155809763408155,-9.803407583577068,,,,,,,,,,
acc,1778674524.0,323.0,-1.0358456672317822,0.2493786467239648,-9.794332081180459,,,,,,,,,,
acc,1778674524.0,323.0,-1.009358917420942,0.24654456251020862,-9.78881771448771,,,,,,,,,,
acc,1778674524.0,323.0,-0.9834678181268911,0.24405569942358943,-9.781259154062056,,,,,,,,,,
acc,1778674524.0,323.0,-0.9581669656784846,0.24332878566044377,-9.776254048078988,,,,,,,,,,
acc,1778674524.0,323.0,-0.9341254256084138,0.24228901004920042,-9.769129131920979,,,,,,,,,,
acc,1778674524.0,323.0,-0.9099473925504638,0.24054875038800666,-9.765263653167345,,,,,,,,,,
acc,1778674524.0,323.0,-0.884604697700377,0.23846934293252858,-9.759658473509754,,,,,,,,,,
acc,1778674524.0,323.0,-0.8602022280427059,0.23466948957001846,-9.755204617659194,,,,,,,,,,
acc,1778674524.0,323.0,-0.8363409744010842,0.23264350776727838,-9.75114620547076,,,,,,,,,,
acc,1778674524.0,323.0,-0.8120221129832684,0.23170083074780717,-9.74499487473045,,,,,,,,,,
acc,1778674524.0,323.0,-0.7882792112689656,0.23282552914674576,-9.741348707295653,,,,,,,,,,
acc,1778674524.0,323.0,-0.763687161077658,0.23291060720875764,-9.737416205672918,,,,,,,,,,
acc,1778674524.0,323.0,-0.7393185822332403,0.23437927397587086,-9.730679708697558,,,,,,,,,,
acc,1778674524.0,323.0,-0.7155264148814299,0.23409526208401893,-9.726098721653234,,,,,,,,,,
acc,1778674524.0,323.0,-0.6909210410961718,0.23242946013904403,-9.718471162526047,,,,,,,,,,
acc,1778674525.0,324.0,-0.6654743653235387,0.2297493955180841,-9.709812518224458,,,,,,,,,,
acc,1778674525.0,324.0,-0.640613897858766,0.22535435233165566,-9.70368182153198,,,,,,,,,,
acc,1778674525.0,324.0,-0.6159793408856048,0.22099924750794328,-9.697251873551176,,,,,,,,,,
acc,1778674525.0,324.0,-0.5922785650712686,0.2156188146268218,-9.690205917119018,,,,,,,,,,
acc,1778674525.0,324.0,-0.5691126379715002,0.2141209107044226,-9.685318291805702,,,,,,,,,,
acc,1778674525.0,324.0,-0.5461572228416715,0.21263661844125578,-9.682214413698485,,,,,,,,,,
acc,1778674525.0,324.0,-0.5220260358222439,0.2097814523251624,-9.678783779185611,,,,,,,,,,
acc,1778674525.0,324.0,-0.49846910308319414,0.20730719327025476,-9.676058748508055,,,,,,,,,,
acc,1778674525.0,324.0,-0.4747712645755565,0.20588481819578297,-9.673322986199633,,,,,,,,,,
acc,1778674525.0,324.0,-0.4502593715424201,0.2048303393001156,-9.668553284044773,,,,,,,,,,
acc,1778674525.0,324.0,-0.42632518323049384,0.2041404043728712,-9.665921219285487,,,,,,,,,,
acc,1778674525.0,324.0,-0.4032829264581071,0.20448614811411087,-9.663987510735321,,,,,,,,,,
acc,1778674525.0,324.0,-0.3811599904804419,0.20482875003435863,-9.66317177191568,,,,,,,,,,
acc,1778674525.0,324.0,-0.3588831268952652,0.2065526005048906,-9.661653513192947,,,,,,,,,,
acc,1778674525.0,324.0,-0.3368086962374184,0.20652145342706624,-9.658764680188069,,,,,,,,,,
acc,1778674525.0,324.0,-0.31564478251795725,0.20684556024763845,-9.658315869362438,,,,,,,,,,
acc,1778674525.0,324.0,-0.29396326465017547,0.20507241832256834,-9.657551669529035,,,,,,,,,,
acc,1778674525.0,324.0,-0.2724787697211962,0.2015760474135125,-9.656048987090761,,,,,,,,,,
acc,1778674525.0,324.0,-0.2518994309033822,0.19917635200310965,-9.656370281136303,,,,,,,,,,
acc,1778674525.0,324.0,-0.23182657587224023,0.1960885303213037,-9.658711961273942,,,,,,,,,,
acc,1778674525.0,324.0,-0.21019678387031604,0.19338373896097644,-9.659009056506346,,,,,,,,,,
acc,1778674525.0,324.0,-0.18947348648833742,0.191058488185708,-9.661717222949315,,,,,,,,,,
acc,1778674525.0,324.0,-0.16929346633710607,0.1897837673320874,-9.66259044942218,,,,,,,,,,
acc,1778674525.0,324.0,-0.15032622485576022,0.19128937185887226,-9.662852300298647,,,,,,,,,,
acc,1778674525.0,324.0,-0.13188631217048707,0.19349122738404637,-9.665525542655985,,,,,,,,,,
acc,1778674525.0,324.0,-0.1125845563765312,0.19496314171075713,-9.669594358160012,,,,,,,,,,
acc,1778674525.0,324.0,-0.09413263656981966,0.19610220404858747,-9.671815869288542,,,,,,,,,,
acc,1778674525.0,324.0,-0.07655832453361609,0.19616602116254994,-9.678241294684003,,,,,,,,,,
