sensor,time,t,ax,ay,az,wx,wy,wz,lat,lon,alt,v_kmh,satellites,x,y
acc,1778674688.0,487.0,-0.035156,0.320312,-9.800781,,,,,,,,,,
acc,1778674688.0,487.0,-0.035156,0.320312,-9.800781,,,,,,,,,,
acc,1778674688.0,487.0,-0.035156,0.320312,-9.800781,,,,,,,,,,
acc,1778674688.0,487.0,-0.035156,0.320312,-9.800781,,,,,,,,,,
acc,1778674688.0,487.0,-0.035156,0.31400649628073674,-9.807086665142226,,,,,,,,,,
acc,1778674688.0,487.0,-0.035156,0.3148832702998617,-9.8062098686774,,,,,,,,,,
acc,1778674688.0,487.0,-0.035156,0.3107753406155428,-9.810317903526064,,,,,,,,,,
acc,1778674688.0,487.0,-0.035156,0.31181398655657483,-9.809279230995356,,,,,,,,,,
acc,1778674688.0,487.0,-0.035156,0.3126491886334726,-9.80844400753701,,,,,,,,,,
acc,1778674688.0,487.0,-0.035156,0.3133354404969334,-9.807757738105277,,,,,,,,,,
acc,1778674688.0,487.0,-0.035156,0.3139093690132615,-9.80718379489619,,,,,,,,,,
acc,1778674688.0,487.0,-0.035156,0.31439650198339,-9.806696649455297,,,,,,,,,,
acc,1778674688.0,487.0,-0.035156,0.3148151762632605,-9.806277964457228,,,,,,,,,,
acc,1778674688.0,487.0,-0.035156,0.3151789032055836,-9.805914228203376,,,,,,,,,,
acc,1778674688.0,487.0,-0.035156,0.3154978580123146,-9.805595265231297,,,,,,,,,,
acc,1778674688.0,487.0,-0.035156,0.3157798495457125,-9.807372610878101,,,,,,,,,,
acc,1778674688.0,487.0,-0.035156,0.316030970421553,-9.81111976123385,,,,,,,,,,
acc,1778674688.0,487.0,-0.035156,0.31625604394826534,-9.810576204734158,,,,,,,,,,
acc,1778674688.0,487.0,-0.035156,0.318217625302452,-9.811844898291373,,,,,,,,,,
acc,1778674688.0,487.0,-0.035156,0.3199951199940008,-9.811316970915795,,,,,,,,,,
acc,1778674688.0,487.0,-0.035156,0.3200095757378466,-9.81083633062975,,,,,,,,,,
acc,1778674688.0,487.0,-0.035156,0.3200227931605281,-9.811933396624772,,,,,,,,,,
acc,1778674688.0,487.0,-0.035156,0.3200349257528152,-9.811465539496913,,,,,,,,,,
acc,1778674688.0,487.0,-0.033737843361138976,0.32146429961888473,-9.812452733214393,,,,,,,,,,
acc,1778674688.0,487.0,-0.03379294132497745,0.32141953068363976,-9.811999265158075,,,,,,,,,,
acc,1778674688.0,487.0,-0.032526516478717064,0.32137802484482364,-9.811578849261409,,,,,,,,,,
acc,1778674688.0,487.0,-0.03134906592647068,0.32133943505169077,-9.8124606435202,,,,,,,,,,
acc,1778674688.0,487.0,-0.03025145113193158,0.32130346179762925,-9.812051707906209,,,,,,,,,,
acc,1778674688.0,487.0,-0.030417744990058903,0.32126984524859514,-9.811669562768712,,,,,,,,,,
acc,1778674688.0,487.0,-0.029417850518043055,0.3212383588853085,-9.81246731671924,,,,,,,,,,
acc,1778674688.0,487.0,-0.02847930337386732,0.3212088043301327,-9.812094476454245,,,,,,,,,,
acc,1778674688.0,487.0,-0.027596562879492324,0.3211810071088543,-9.8117438055243,,,,,,,,,,
acc,1778674688.0,487.0,-0.026764736465896787,0.32115481315600936,-9.811413360343789,,,,,,,,,,
acc,1778674688.0,487.0,-0.02597948761147183,0.3211300859158927,-9.811101418218357,,,,,,,,,,
acc,1778674688.0,487.0,-0.025236959039226462,0.3211067039240618,-9.810806446834807,,,,,,,,,,
acc,1778674688.0,487.0,-0.023445210266816674,0.3210845587789204,-9.811506760342294,,,,,,,,,,
acc,1778674688.0,487.0,-0.022807750967874015,0.32106355343190074,-9.810046836379353,,,,,,,,,,
acc,1778674688.0,487.0,-0.022202237076968213,0.32104360073935273,-9.809800841382017,,,,,,,,,,
acc,1778674688.0,487.0,-0.0216262872060281,0.3210246222305678,-9.8095668570109,,,,,,,,,,
acc,1778674688.0,487.0,-0.021077751226279234,0.32100654705521703,-9.808254130469965,,,,,,,,,,
acc,1778674688.0,487.0,-0.02055468286722647,0.3218617720038959,-9.808068676241477,,,,,,,,,,
acc,1778674688.0,487.0,-0.020055316121321498,0.3218241209923245,-9.807891625435419,,,,,,,,,,
acc,1778674688.0,487.0,-0.018648457393354065,0.32178813592474415,-9.80772240859488,,,,,,,,,,
acc,1778674688.0,487.0,-0.018213499413680685,0.3217537064228284,-9.8075605066748,,,,,,,,,,
acc,1778674688.0,487.0,-0.017796919684952835,0.32172073166839565,-9.807405445585916,,,,,,,,,,
acc,1778674688.0,487.0,-0.01739755252300653,0.32168911939063577,-9.80629255672844,,,,,,,,,,
acc,1778674688.0,487.0,-0.0177887256138848,0.3216587849794075,-9.806171151257393,,,,,,,,,,
acc,1778674688.0,487.0,-0.017403911711427765,0.3216296507066695,-9.806054549023752,,,,,,,,,,
acc,1778674688.0,487.0,-0.017781218874556786,0.32234888039257736,-9.80668969909337,,,,,,,,,,
acc,1778674688.0,487.0,-0.01814420922513278,0.32230632630671896,-9.806566255768251,,,,,,,,,,
acc,1778674688.0,487.0,-0.01849370302818765,0.3222653544481597,-9.806447402258538,,,,,,,,,,
acc,1778674688.0,487.0,-0.018830458836834596,0.32222587589019874,-9.807043426330532,,,,,,,,,,
acc,1778674688.0,487.0,-0.019155179185843054,0.3221878082732779,-9.807618148843718,,,,,,,,,,
acc,1778674688.0,487.0,-0.019468515666353183,0.32215107521006275,-9.808172723049188,,,,,,,,,,
acc,1778674688.0,487.0,-0.019771073458811857,0.3221156057540373,-9.808708220055754,,,,,,,,,,
acc,1778674688.0,487.0,-0.02006341539043152,0.3213390840013361,-9.809299857203127,,,,,,,,,,
acc,1778674688.0,487.0,-0.020346065574359622,0.32131984902671795,-9.809798729739265,,,,,,,,,,
acc,1778674688.0,487.0,-0.021340762618157844,0.32130124034207586,-9.80956010906817,,,,,,,,,,
acc,1778674688.0,487.0,-0.021592329312555864,0.32128322690401884,-9.810040433701293,,,,,,,,,,
acc,1778674688.0,487.0,-0.022537719367511817,0.32126577970007886,-9.810575827538923,,,,,,,,,,
acc,1778674688.0,487.0,-0.022761409739374672,0.3212488715854157,-9.811025435053155,,,,,,,,,,
acc,1778674688.0,487.0,-0.02297830445399426,0.32123247713502395,-9.811461383604174,,,,,,,,,,
acc,1778674688.0,487.0,-0.023188718897722893,0.32121657250975233,-9.81188430710426,,,,,,,,,,
acc,1778674688.0,487.0,-0.023392949085855177,0.3212011353346524,-9.811694821248667,,,,,,,,,,
acc,1778674688.0,487.0,-0.023591273126181072,0.32118614458835265,-9.812103559185397,,,,,,,,,,
acc,1778674688.0,487.0,-0.023783952551867056,0.32117158050231,-9.811914914505333,,,,,,,,,,
acc,1778674688.0,487.0,-0.02397123353707723,0.3217364088274634,-9.812310539579864,,,,,,,,,,
acc,1778674688.0,487.0,-0.02415334800719582,0.3217132160804619,-9.81269525055697,,,,,,,,,,
acc,1778674688.0,487.0,-0.02433051465416066,0.32225675767903333,-9.813069509416358,,,,,,,,,,
acc,1778674688.0,487.0,-0.023942985225674483,0.3227857527072247,-9.812873781578343,,,,,,,,,,
acc,1778674688.0,487.0,-0.023565674150227103,0.3227467695025175,-9.812683214680378,,,,,,,,,,
acc,1778674688.0,487.0,-0.023746425371201797,0.3227087992533566,-9.812497599550685,,,,,,,,,,
acc,1778674688.0,487.0,-0.023379867829845514,0.3226718014809466,-9.812859433191866,,,,,,,,,,
acc,1778674688.0,487.0,-0.02302256547798521,0.3226357378630852,-9.812674844783682,,,,,,,,,,
acc,1778674688.0,487.0,-0.022674158599781006,0.32260057209255383,-9.812494851926896,,,,,,,,,,
acc,1778674688.0,487.0,-0.02174882394139346,0.32256626974651403,-9.812846230404368,,,,,,,,,,
acc,1778674688.0,487.0,-0.02142589563416303,0.32253279816592445,-9.813189098877926,,,,,,,,,,
acc,1778674688.0,487.0,-0.021110683267961207,0.32250012634409303,-9.81300655406047,,,,,,,,,,
acc,1778674688.0,487.0,-0.021315455246158913,0.3224682248235667,-9.81282831308967,,,,,,,,,,
acc,1778674688.0,487.0,-0.02100742937866145,0.32243706560064,-9.812654219502523,,,,,,,,,,
acc,1778674688.0,487.0,-0.020706478190854048,0.3224066220368344,-9.8129877815615,,,,,,,,,,
acc,1778674688.0,487.0,-0.02041235103092325,0.3223768687767607,-9.813313780145464,,,,,,,,,,
acc,1778674688.0,487.0,-0.019574556054175643,0.3223477816718352,-9.813632479844047,,,,,,,,,,
acc,1778674688.0,487.0,-0.019301060155559553,0.3223193377093676,-9.813452918835422,,,,,,,,,,
acc,1778674688.0,487.0,-0.018492117260510848,0.3222915149465853,-9.813277279335347,,,,,,,,,,
acc,1778674688.0,487.0,-0.018237811722332894,0.3222642924491973,-9.813105429189859,,,,,,,,,,
acc,1778674688.0,487.0,-0.018468687998424823,0.32223765023413764,-9.812350860153613,,,,,,,,,,
acc,1778674688.0,487.0,-0.01821854798069929,0.32221156921616056,-9.812194157900363,,,,,,,,,,
acc,1778674688.0,487.0,-0.017973615427470124,0.3226586864861185,-9.812040717905699,,,,,,,,,,
acc,1778674688.0,487.0,-0.0177337231132129,0.32262736546146087,-9.811316931826594,,,,,,,,,,
acc,1778674688.0,487.0,-0.017498711080897306,0.3230625915687027,-9.810607870188088,,,,,,,,,,
acc,1778674688.0,487.0,-0.017268426251275715,0.3230263935020092,-9.810478547570181,,,,,,,,,,
acc,1778674688.0,487.0,-0.017042722057061144,0.32299091545732594,-9.810351797330853,,,,,,,,,,
acc,1778674688.0,487.0,-0.016821458100164683,0.3229561353657247,-9.810227540625792,,,,,,,,,,
acc,1778674688.0,487.0,-0.016604499830314704,0.3233754768292837,-9.810105701894688,,,,,,,,,,
acc,1778674688.0,487.0,-0.016391718243518198,0.3233362193106887,-9.809435574099071,,,,,,,,,,
acc,1778674688.0,487.0,-0.01618298959895006,0.3232977095469031,-9.808778210515255,,,,,,,,,,
acc,1778674688.0,487.0,-0.01642309153622785,0.3237048346682854,-9.808677006452381,,,,,,,,,,
acc,1778674688.0,487.0,-0.017150050300514277,0.32410436534427794,-9.808528560442019,,,,,,,,,,
acc,1778674688.0,487.0,-0.017375179754845475,0.32405694917602074,-9.808871262286365,,,,,,,,,,
acc,1778674688.0,487.0,-0.017596194360734303,0.3240103996662231,-9.809207700329493,,,,,,,,,,
acc,1778674688.0,487.0,-0.018295974704346376,0.3239646925105987,-9.809055285040692,,,,,,,,,,
acc,1778674688.0,487.0,-0.0185031686331246,0.3239198043388066,-9.809385648443532,,,,,,,,,,
acc,1778674688.0,487.0,-0.019184082496029514,0.3238757126699098,-9.809757885800622,,,,,,,,,,
acc,1778674688.0,487.0,-0.01937822057987007,0.3233575986627458,-9.81012358143857,,,,,,,,,,
acc,1778674688.0,487.0,-0.019568979176776555,0.3233207763627139,-9.810435686338353,,,,,,,,,,
acc,1778674688.0,487.0,-0.019756448172372054,0.32281478061932656,-9.810272588574113,,,,,,,,,,
acc,1778674688.0,487.0,-0.019940714158904832,0.32278483316728007,-9.810579692469675,,,,,,,,,,
acc,1778674688.0,487.0,-0.020586927290469816,0.32275539271535525,-9.810928100300158,,,,,,,,,,
acc,1778674688.0,487.0,-0.02122229883659624,0.32272644618897806,-9.811270662855952,,,,,,,,,,
acc,1778674688.0,487.0,-0.0213865707610666,0.3222374579757422,-9.81160752935152,,,,,,,,,,
acc,1778674688.0,487.0,-0.021135630106157745,0.32221486549512296,-9.811893012438405,,,,,,,,,,
acc,1778674688.0,487.0,-0.0212993724244844,0.32219264214367116,-9.812173831135578,,,,,,,,,,
acc,1778674688.0,487.0,-0.02105175701609589,0.32217077877778616,-9.812450100983398,,,,,,,,,,
acc,1778674688.0,487.0,-0.0212149896905636,0.3221492665681987,-9.81272193355027,,,,,,,,,,
acc,1778674688.0,487.0,-0.02137562253609853,0.32212809698648937,-9.812584346238307,,,,,,,,,,
acc,1778674688.0,487.0,-0.02153371807984443,0.32210726179229193,-9.812448932208722,,,,,,,,,,
acc,1778674688.0,487.0,-0.022135585949211424,0.32208675302114176,-9.812271018205902,,,,,,,,,,
acc,1778674688.0,487.0,-0.022283709538391833,0.3220665629729317,-9.812140304794656,,,,,,,,,,
acc,1778674688.0,487.0,-0.022031240525953344,0.32204668420094024,-9.812011606632506,,,,,,,,,,
acc,1778674688.0,487.0,-0.021782633365309258,0.3220271095013993,-9.811884877081171,,,,,,,,,,
acc,1778674688.0,487.0,-0.021537799525067458,0.32200783190357074,-9.81215523091559,,,,,,,,,,
acc,1778674688.0,487.0,-0.021296653313486916,0.3219888446603035,-9.812027880269031,,,,,,,,,,
acc,1778674688.0,487.0,-0.021059111764304743,0.32197014123904366,-9.811902433264601,,,,,,,,,,
acc,1778674688.0,487.0,-0.02121576200018851,0.32151764281359935,-9.811344774969598,,,,,,,,,,
acc,1778674688.0,487.0,-0.021370105177980995,0.32150429420770493,-9.81122781523058,,,,,,,,,,
acc,1778674688.0,487.0,-0.02152219178484636,0.3214911407648,-9.811112565498773,,,,,,,,,,
acc,1778674688.0,487.0,-0.021285594358494277,0.32104876247760683,-9.810956049313608,,,,,,,,,,
acc,1778674688.0,487.0,-0.021052406995780603,0.3210406911174087,-9.81084457989091,,,,,,,,,,
acc,1778674689.0,488.0,-0.021206389851887088,0.32060625683793986,-9.810692060188337,,,,,,,,,,
acc,1778674689.0,488.0,-0.020975630208362284,0.32060305485007196,-9.810584211906193,,,,,,,,,,
acc,1778674689.0,488.0,-0.02074812817852364,0.3205998980643865,-9.810477886108806,,,,,,,,,,
acc,1778674689.0,488.0,-0.020523816212687007,0.3205967855435736,-9.810373051226023,,,,,,,,,,
acc,1778674689.0,488.0,-0.020302628740406125,0.3205937163777873,-9.809806594874015,,,,,,,,,,
acc,1778674689.0,488.0,-0.02008450209717779,0.32059068968362786,-9.809247977239279,,,,,,,,,,
acc,1778674689.0,488.0,-0.020245934817880562,0.32096427567781316,-9.808697039980004,,,,,,,,,,
acc,1778674689.0,488.0,-0.020405162144735804,0.3209573099059482,-9.808153629284345,,,,,,,,,,
acc,1778674689.0,488.0,-0.020187889636226558,0.32132478757784516,-9.808075126126782,,,,,,,,,,
acc,1778674689.0,488.0,-0.02034681077884435,0.32168730743640034,-9.80799768209208,,,,,,,,,,
acc,1778674689.0,488.0,-0.020131391834456305,0.32167274656593375,-9.807921276504237,,,,,,,,,,
acc,1778674689.0,488.0,-0.020290022077613535,0.3220295683772569,-9.808217077873007,,,,,,,,,,
acc,1778674689.0,488.0,-0.02044655065239381,0.3220114835575711,-9.808508960213663,,,,,,,,,,
acc,1778674689.0,488.0,-0.020231837264146978,0.3223628277446571,-9.808796998140892,,,,,,,,,,
acc,1778674689.0,488.0,-0.02038814813541511,0.32270957112458243,-9.808713041159475,,,,,,,,,,
acc,1778674689.0,488.0,-0.0205424238211845,0.32305179986587207,-9.808997452814852,,,,,,,,,,
acc,1778674689.0,488.0,-0.020694702129863234,0.3233895978386695,-9.809278182248224,,,,,,,,,,
acc,1778674689.0,488.0,-0.021251059624275884,0.32372304669309515,-9.809149257560318,,,,,,,,,,
acc,1778674689.0,488.0,-0.02139524233882507,0.3240522259344339,-9.809062485660656,,,,,,,,,,
acc,1778674689.0,488.0,-0.021173921814009,0.32401353561470625,-9.80897681882297,,,,,,,,,,
acc,1778674689.0,488.0,-0.020955404851721943,0.32397533540194323,-9.809255060872895,,,,,,,,,,
acc,1778674689.0,488.0,-0.020739641402678716,0.3239376165467401,-9.80952979681894,,,,,,,,,,
acc,1778674689.0,488.0,-0.02088774091414001,0.32390037052267007,-9.809801088765743,,,,,,,,,,
acc,1778674689.0,488.0,-0.02067363746111626,0.32386358901897416,-9.810068997247068,,,,,,,,,,
acc,1778674689.0,488.0,-0.02082176075290524,0.32382726393353595,-9.810333581276971,,,,,,,,,,
acc,1778674689.0,488.0,-0.02096805511666041,0.3237913873661281,-9.810594898398993,,,,,,,,,,
acc,1778674689.0,488.0,-0.021112551970477515,0.3237559516119191,-9.810494948938095,,,,,,,,,,
acc,1778674689.0,488.0,-0.02125528196114997,0.32372094915522814,-9.810396221628505,,,,,,,,,,
acc,1778674689.0,488.0,-0.021396274988666114,0.32368637266351735,-9.810655288293312,,,,,,,,,,
acc,1778674689.0,488.0,-0.02117968742472185,0.32325680300325216,-9.810950756171088,,,,,,,,,,
acc,1778674689.0,488.0,-0.02096571117624316,0.3228324125041399,-9.81124266170288,,,,,,,,,,
acc,1778674689.0,488.0,-0.02075430301831898,0.3224131154359105,-9.811531063855934,,,,,,,,,,
acc,1778674689.0,488.0,-0.020899249304822447,0.3223919687001933,-9.811776708154902,,,,,,,,,,
acc,1778674689.0,488.0,-0.021042471439482725,0.32237107350719757,-9.811666246183046,,,,,,,,,,
acc,1778674689.0,488.0,-0.021183997352435015,0.3223504257820952,-9.81155709244469,,,,,,,,,,
acc,1778674689.0,488.0,-0.021323854327336744,0.32233002154437523,-9.811801140492923,,,,,,,,,,
acc,1778674689.0,488.0,-0.0214620690209125,0.32230985690499203,-9.811691024146736,,,,,,,,,,
acc,1778674689.0,488.0,-0.021598667481793597,0.322289928063617,-9.811582195461321,,,,,,,,,,
acc,1778674689.0,488.0,-0.021733675168681497,0.32227023130598853,-9.811474634153601,,,,,,,,,,
acc,1778674689.0,488.0,-0.02151760375379755,0.3218624171950128,-9.811329487804267,,,,,,,,,,
acc,1778674689.0,488.0,-0.02130402845625738,0.32184702836187296,-9.811224787650515,,,,,,,,,,
acc,1778674689.0,488.0,-0.021092910752359386,0.32183181660678906,-9.811469689531766,,,,,,,,,,
acc,1778674689.0,488.0,-0.0208842129660612,0.32181677921507296,-9.811363933343353,,,,,,,,,,
acc,1778674689.0,488.0,-0.021025203664355924,0.3218019135313427,-9.811259384756793,,,,,,,,,,
acc,1778674689.0,488.0,-0.02116459046970135,0.3221340071739577,-9.810732177369584,,,,,,,,,,
acc,1778674689.0,488.0,-0.021302397489665816,0.3221160614924698,-9.810634164221197,,,,,,,,,,
acc,1778674689.0,488.0,-0.021092887417082918,0.32209831846357295,-9.81011465577313,,,,,,,,,,
acc,1778674689.0,488.0,-0.020885734763938388,0.3220807750802621,-9.810022990202707,,,,,,,,,,
acc,1778674689.0,488.0,-0.020680904772014678,0.32206342839892677,-9.809932352415721,,,,,,,,,,
acc,1778674689.0,488.0,-0.02047836341071128,0.3220462755375769,-9.809421904384251,,,,,,,,,,
acc,1778674689.0,488.0,-0.020278077356803606,0.32202931367412896,-9.80933739310732,,,,,,,,,,
acc,1778674689.0,488.0,-0.020080013974879546,0.32201254004474894,-9.809597210942595,,,,,,,,,,
acc,1778674689.0,488.0,-0.02022707431739649,0.32199595194225084,-9.809511212255758,,,,,,,,,,
acc,1778674689.0,488.0,-0.020030020142861784,0.32197954671454815,-9.809768664656577,,,,,,,,,,
acc,1778674689.0,488.0,-0.01983513138780618,0.32196332176315634,-9.810023287924519,,,,,,,,,,
acc,1778674689.0,488.0,-0.01964237746654487,0.3222889233807308,-9.810275122019956,,,,,,,,,,
acc,1778674689.0,488.0,-0.01945172840301683,0.3222697353475182,-9.810182972000172,,,,,,,,,,
acc,1778674689.0,488.0,-0.019263154814502508,0.32225075620221066,-9.810091825159004,,,,,,,,,,
acc,1778674689.0,488.0,-0.019076627895867875,0.3222319830456917,-9.810342096072466,,,,,,,,,,
acc,1778674689.0,488.0,-0.01923214703207172,0.3222134130354414,-9.810589658778484,,,,,,,,,,
acc,1778674689.0,488.0,-0.019046344247574037,0.32219504338405114,-9.810834550436889,,,,,,,,,,
acc,1778674689.0,488.0,-0.018862540374083858,0.3225161486855651,-9.811076807491979,,,,,,,,,,
acc,1778674689.0,488.0,-0.019019606902169795,0.3228338092724093,-9.811316465691094,,,,,,,,,,
acc,1778674689.0,488.0,-0.019174993182212767,0.32280952537207036,-9.811215013847901,,,,,,,,,,
acc,1778674689.0,488.0,-0.01932872176364076,0.32312369172979616,-9.811114644317637,,,,,,,,,,
acc,1778674689.0,488.0,-0.01948081477336513,0.32309667263963954,-9.811353185576646,,,,,,,,,,
acc,1778674689.0,488.0,-0.019293802213897066,0.32306994024863445,-9.811251694365582,,,,,,,,,,
acc,1778674689.0,488.0,-0.019445925471360474,0.3230434907704367,-9.8114884434768,,,,,,,,,,
acc,1778674689.0,488.0,-0.019259614991041025,0.32335415802091344,-9.811722693506512,,,,,,,,,,
acc,1778674689.0,488.0,-0.019075266174175723,0.32366155425523147,-9.81195447711715,,,,,,,,,,
acc,1778674689.0,488.0,-0.019229042767262033,0.3236295231895285,-9.812183826379384,,,,,,,,,,
acc,1778674689.0,488.0,-0.019045329275817362,0.3239337162542286,-9.812074884240566,,,,,,,,,,
acc,1778674689.0,488.0,-0.01919911048911034,0.3242347300530324,-9.811967080707676,,,,,,,,,,
acc,1778674689.0,488.0,-0.01935128829059636,0.32453260530800027,-9.811860401196723,,,,,,,,,,
acc,1778674689.0,488.0,-0.019501883117212078,0.3248273820227179,-9.811754831381032,,,,,,,,,,
acc,1778674689.0,488.0,-0.019650915047679393,0.3251190994995956,-9.811650357185037,,,,,,,,,,
acc,1778674689.0,488.0,-0.019798403811081028,0.32540779635665457,-9.81154696477828,,,,,,,,,,
acc,1778674689.0,488.0,-0.019944368795182757,0.325359363787844,-9.81144464056957,,,,,,,,,,
acc,1778674689.0,488.0,-0.019754963158831636,0.3253114305010126,-9.811677246593703,,,,,,,,,,
acc,1778674689.0,488.0,-0.01956750585036143,0.32526399028165764,-9.811573850751227,,,,,,,,,,
acc,1778674689.0,488.0,-0.01971531119564374,0.32521703702072113,-9.811471516233437,,,,,,,,,,
acc,1778674689.0,488.0,-0.01986160253897891,0.32517056471213684,-9.811370229950128,,,,,,,,,,
acc,1778674689.0,488.0,-0.02000639847030004,0.32512456745044865,-9.810863180633193,,,,,,,,,,
acc,1778674689.0,488.0,-0.020149717270109106,0.3250790394284973,-9.81076780082898,,,,,,,,,,
acc,1778674689.0,488.0,-0.02029157691655049,0.32503397493517333,-9.81067339210297,,,,,,,,,,
acc,1778674689.0,488.0,-0.020431995092282947,0.3249893683532341,-9.810912056606233,,,,,,,,,,
acc,1778674689.0,488.0,-0.020570989191156606,0.3245764702234342,-9.811185173154746,,,,,,,,,,
acc,1778674689.0,488.0,-0.02037693356280725,0.3241677516477139,-9.811050178691547,,,,,,,,,,
acc,1778674689.0,488.0,-0.02018483860118176,0.32376316261421634,-9.810916548162773,,,,,,,,,,
acc,1778674689.0,488.0,-0.01999468094178487,0.3233626539128089,-9.810784265314954,,,,,,,,,,
acc,1778674689.0,488.0,-0.020137419777648637,0.3233339330088779,-9.810285548847403,,,,,,,,,,
acc,1778674689.0,488.0,-0.02027872421245779,0.3229379803768498,-9.81015937380307,,,,,,,,,,
acc,1778674689.0,488.0,-0.020088048960407293,0.32291328900746236,-9.810071191540223,,,,,,,,,,
acc,1778674689.0,488.0,-0.02022964125903585,0.3228888449082616,-9.810314259815291,,,,,,,,,,
acc,1778674689.0,488.0,-0.020369817979167384,0.32286464519058117,-9.810224730874157,,,,,,,,,,
acc,1778674689.0,488.0,-0.0201786344291867,0.3228406870104013,-9.810136095521823,,,,,,,,,,
acc,1778674689.0,488.0,-0.020319124243685094,0.3224505604640921,-9.81041475988169,,,,,,,,,,
acc,1778674689.0,488.0,-0.02012863738212893,0.32243051197843065,-9.810654034067356,,,,,,,,,,
acc,1778674689.0,488.0,-0.01994004264836522,0.32204467226432654,-9.81052493177334,,,,,,,,,,
acc,1778674689.0,488.0,-0.0197533183464833,0.322028447022252,-9.81076290706291,,,,,,,,,,
acc,1778674689.0,488.0,-0.01989747511157396,0.32201238245273456,-9.810998525771412,,,,,,,,,,
acc,1778674689.0,488.0,-0.019711350048386013,0.3219964767265213,-9.81090294893972,,,,,,,,,,
acc,1778674689.0,488.0,-0.019527062644169826,0.3223094215228693,-9.810808315761824,,,,,,,,,,
acc,1778674689.0,488.0,-0.01934459212196542,0.3226192810092169,-9.810714615568573,,,,,,,,,,
acc,1778674689.0,488.0,-0.01916391800949964,0.32259773152676097,-9.810621837847279,,,,,,,,,,
acc,1778674689.0,488.0,-0.019313206349551918,0.3225763939007009,-9.810858167790217,,,,,,,,,,
acc,1778674689.0,488.0,-0.01913300265537701,0.3225552657597497,-9.811092177531101,,,,,,,,,,
acc,1778674689.0,488.0,-0.01895456574406639,0.3225343447668126,-9.81099601412676,,,,,,,,,,
acc,1778674689.0,488.0,-0.01877787596817549,0.3225136286183077,-9.810900792290441,,,,,,,,,,
acc,1778674689.0,488.0,-0.01893047839607062,0.3224931150435036,-9.810806501584722,,,,,,,,,,
acc,1778674689.0,488.0,-0.018754174378958446,0.3228002272497575,-9.811040557166095,,,,,,,,,,
acc,1778674689.0,488.0,-0.018906860548045155,0.32277706410344925,-9.81094504996364,,,,,,,,,,
acc,1778674689.0,488.0,-0.01905805931812068,0.3230812636282033,-9.810850473148786,,,,,,,,,,
acc,1778674689.0,488.0,-0.01920778697576966,0.323382503395409,-9.81075681653406,,,,,,,,,,
acc,1778674689.0,488.0,-0.01902920968808737,0.32335395652695076,-9.810664070073402,,,,,,,,,,
acc,1778674689.0,488.0,-0.019179080590756403,0.32365241086668417,-9.810572223859468,,,,,,,,,,
acc,1778674689.0,488.0,-0.019000916199533393,0.32362138006384245,-9.810481268121002,,,,,,,,,,
acc,1778674689.0,488.0,-0.018824477196067214,0.3235906497709227,-9.810391193220264,,,,,,,,,,
acc,1778674689.0,488.0,-0.01864974495856451,0.32388655044351006,-9.810628323349466,,,,,,,,,,
acc,1778674689.0,488.0,-0.018476701117089777,0.32385338355883336,-9.810536953807178,,,,,,,,,,
acc,1778674689.0,488.0,-0.0186314035689149,0.32414662210643336,-9.810446466192293,,,,,,,,,,
acc,1778674689.0,488.0,-0.018784614371357335,0.3241110687098684,-9.81035685106387,,,,,,,,,,
acc,1778674689.0,488.0,-0.018936349450123412,0.3244017037411467,-9.810268099106743,,,,,,,,,,
acc,1778674689.0,488.0,-0.019086624519803815,0.32468954225503605,-9.810180201129228,,,,,,,,,,
acc,1778674689.0,488.0,-0.018909848940076485,0.32464899854500956,-9.810418763470262,,,,,,,,,,
acc,1778674689.0,488.0,-0.01906026495496738,0.32460884417027047,-9.810655034932203,,,,,,,,,,
acc,1778674689.0,488.0,-0.019209237954609746,0.3245690750163145,-9.81056364646201,,,,,,,,,,
acc,1778674690.0,489.0,-0.019356783151313364,0.3245296870221326,-9.810798419137072,,,,,,,,,,
acc,1778674690.0,489.0,-0.01950291556053903,0.3244906761792657,-9.810705764570283,,,,,,,,,,
acc,1778674690.0,489.0,-0.019647650004357184,0.32445203853088134,-9.810939071531307,,,,,,,,,,
acc,1778674690.0,489.0,-0.01979100111482601,0.3244137701708719,-9.8111701486064,,,,,,,,,,
acc,1778674690.0,489.0,-0.0199329833372913,0.3243758672429736,-9.811074146360017,,,,,,,,,,
acc,1778674690.0,489.0,-0.020073610933610212,0.32433832593990597,-9.810979060053326,,,,,,,,,,
acc,1778674690.0,489.0,-0.020212897985301036,0.32430114250253095,-9.811209557830779,,,,,,,,,,
acc,1778674690.0,489.0,-0.020350858396621003,0.3242643132190313,-9.811113277411467,,,,,,,,,,
acc,1778674690.0,489.0,-0.020163025411523806,0.3242278344241077,-9.811017913251822,,,,,,,,,,
acc,1778674690.0,489.0,-0.019976978489855024,0.3238312722202022,-9.810887414707073,,,,,,,,,,
acc,1778674690.0,489.0,-0.02011699860935662,0.3237988084071361,-9.81111849587024,,,,,,,,,,
acc,1778674690.0,489.0,-0.019931478110582313,0.3237666527934989,-9.8110231626932,,,,,,,,,,
acc,1778674690.0,489.0,-0.019747717507231397,0.3237348022163275,-9.810928733871329,,,,,,,,,,
acc,1778674690.0,489.0,-0.01956569877453134,0.32370325355145163,-9.810835200142261,,,,,,,,,,
acc,1778674690.0,489.0,-0.019709360812633362,0.323672003712858,-9.810742552356754,,,,,,,,,,
acc,1778674690.0,489.0,-0.01985166309836432,0.32364104965206814,-9.810650781476848,,,,,,,,,,
acc,1778674690.0,489.0,-0.019668824825301547,0.3236103883575303,-9.810559878574065,,,,,,,,,,
acc,1778674690.0,489.0,-0.019487714623169013,0.32358001685402416,-9.810793559881516,,,,,,,,,,
acc,1778674690.0,489.0,-0.019308314963423417,0.32354993220207845,-9.81070138643426,,,,,,,,,,
acc,1778674690.0,489.0,-0.01913060852730275,0.32352013149740166,-9.810610082945503,,,,,,,,,,
acc,1778674690.0,489.0,-0.01895457820250209,0.3234906118703242,-9.810519640623143,,,,,,,,,,
acc,1778674690.0,489.0,-0.01878020707992035,0.3234613704852531,-9.810430050779479,,,,,,,,,,
acc,1778674690.0,489.0,-0.018607478450476108,0.32375575669485734,-9.8106646569843,,,,,,,,,,
acc,1778674690.0,489.0,-0.018436375801990784,0.3240473716998679,-9.810897054723606,,,,,,,,,,
acc,1778674690.0,489.0,-0.01859008600285155,0.32401303093194894,-9.811127266161531,,,,,,,,,,
acc,1778674690.0,489.0,-0.018742351054760287,0.32397901302825427,-9.811355313202972,,,,,,,,,,
acc,1778674690.0,489.0,-0.018570116927997777,0.3239453147592963,-9.811258139823,,,,,,,,,,
acc,1778674690.0,489.0,-0.01839950016146873,0.32423494509741974,-9.811161878947207,,,,,,,,,,
acc,1778674690.0,489.0,-0.018230484629444633,0.32452185726135363,-9.811066521477562,,,,,,,,,,
acc,1778674690.0,489.0,-0.018063054392098887,0.32448319359361316,-9.810972058420917,,,,,,,,,,
acc,1778674690.0,489.0,-0.017897193692719117,0.32444489236992935,-9.811201303621706,,,,,,,,,,
acc,1778674690.0,489.0,-0.018055639659744785,0.3247297118787085,-9.811105639121239,,,,,,,,,,
acc,1778674690.0,489.0,-0.018212601943824572,0.32501186434675605,-9.811010870420082,,,,,,,,,,
acc,1778674690.0,489.0,-0.01836809522547669,0.325291376163497,-9.810916988654617,,,,,,,,,,
acc,1778674690.0,489.0,-0.018522134018857675,0.3252456874902339,-9.81082398506167,,,,,,,,,,
acc,1778674690.0,489.0,-0.018674732674191195,0.3252004259690879,-9.810731850977046,,,,,,,,,,
acc,1778674690.0,489.0,-0.018825905380148812,0.3254780613081231,-9.810963051750582,,,,,,,,,,
acc,1778674690.0,489.0,-0.01897566616618386,0.3254306841544556,-9.811192093159592,,,,,,,,,,
acc,1778674690.0,489.0,-0.019124028904819648,0.32538374927615415,-9.811096630463382,,,,,,,,,,
acc,1778674690.0,489.0,-0.01927100731389306,0.3249791385008139,-9.810966248952118,,,,,,,,,,
acc,1778674690.0,489.0,-0.019416614958754706,0.32493635780467034,-9.810872887240121,,,,,,,,,,
acc,1778674690.0,489.0,-0.019560865254426633,0.32489397590862623,-9.811102607138148,,,,,,,,,,
acc,1778674690.0,489.0,-0.019703771467718668,0.32485198891478617,-9.811008024961382,,,,,,,,,,
acc,1778674690.0,489.0,-0.019845346719304387,0.32481039296819086,-9.811236436512553,,,,,,,,,,
acc,1778674690.0,489.0,-0.019985603985757685,0.3247691842562186,-9.811140656736345,,,,,,,,,,
acc,1778674690.0,489.0,-0.020124556101550905,0.3247283590079983,-9.81104576822974,,,,,,,,,,
acc,1778674690.0,489.0,-0.02026221576101543,0.32468791349383336,-9.81055824737306,,,,,,,,,,
acc,1778674690.0,489.0,-0.020076678219781898,0.3246478440246365,-9.81046871884079,,,,,,,,,,
acc,1778674690.0,489.0,-0.019892865019488514,0.324250512528426,-9.81002238794205,,,,,,,,,,
acc,1778674690.0,489.0,-0.019710759446612144,0.324214458140103,-9.809937789356391,,,,,,,,,,
acc,1778674690.0,489.0,-0.019852131220107722,0.32417873856510826,-9.809853976382009,,,,,,,,,,
acc,1778674690.0,489.0,-0.019670446525764752,0.3241433505653758,-9.809770941421053,,,,,,,,,,
acc,1778674690.0,489.0,-0.01981215053618571,0.3241082909376172,-9.809295479540479,,,,,,,,,,
acc,1778674690.0,489.0,-0.019952540141059887,0.3240735565128579,-9.809217575724933,,,,,,,,,,
acc,1778674690.0,489.0,-0.01977000561590344,0.32403914415598156,-9.809140394256659,,,,,,,,,,
acc,1778674690.0,489.0,-0.019589162992874706,0.3240050507652831,-9.809063928179022,,,,,,,,,,
acc,1778674690.0,489.0,-0.019409995994397015,0.3239712732720292,-9.809309724632234,,,,,,,,,,
acc,1778674690.0,489.0,-0.019232488515498233,0.3239378086400268,-9.809553244416026,,,,,,,,,,
acc,1778674690.0,489.0,-0.01905662462156216,0.3239046538651994,-9.80947303009221,,,,,,,,,,
acc,1778674690.0,489.0,-0.01888238854611935,0.3238718059751702,-9.809715001195961,,,,,,,,,,
acc,1778674690.0,489.0,-0.018709764688676425,0.32383926202885316,-9.80963332605486,,,,,,,,,,
acc,1778674690.0,489.0,-0.018860100707586504,0.32380701911605075,-9.80955240641386,,,,,,,,,,
acc,1778674690.0,489.0,-0.019009046552563993,0.3237750743570588,-9.809472235045806,,,,,,,,,,
acc,1778674690.0,489.0,-0.01883532058041915,0.3237434249022781,-9.809392804799092,,,,,,,,,,
acc,1778674690.0,489.0,-0.01866320007433348,0.32371206793183244,-9.809314108596709,,,,,,,,,,
acc,1778674690.0,489.0,-0.01849266971691033,0.32332408132757906,-9.80959306790017,,,,,,,,,,
acc,1778674690.0,489.0,-0.01832371434981965,0.3232965619204735,-9.809833764226987,,,,,,,,,,
acc,1778674690.0,489.0,-0.018156318971806633,0.3232692966039911,-9.81007223817018,,,,,,,,,,
acc,1778674690.0,489.0,-0.017990468736733555,0.322885468239321,-9.810344190524933,,,,,,,,,,
acc,1778674690.0,489.0,-0.01814725377937083,0.32286196291802105,-9.810256843083645,,,,,,,,,,
acc,1778674690.0,489.0,-0.018302592424336586,0.32283867444165365,-9.810170301453507,,,,,,,,,,
acc,1778674690.0,489.0,-0.018456498403901855,0.3228156007514673,-9.810084557984053,,,,,,,,,,
acc,1778674690.0,489.0,-0.018608985309503133,0.32311376628533783,-9.80999960510328,,,,,,,,,,
acc,1778674690.0,489.0,-0.018760066593462216,0.3230881849671569,-9.809915435316684,,,,,,,,,,
acc,1778674690.0,489.0,-0.01890975557067819,0.3230628393965211,-9.81015301197642,,,,,,,,,,
acc,1778674690.0,489.0,-0.019058065420292227,0.32335867101635046,-9.810067456099622,,,,,,,,,,
acc,1778674690.0,489.0,-0.019205009187325754,0.32365177773002113,-9.810303605349521,,,,,,,,,,
acc,1778674690.0,489.0,-0.01902971796026834,0.32394218529394686,-9.81053757995736,,,,,,,,,,
acc,1778674690.0,489.0,-0.018856040562299135,0.32422991920339506,-9.810448535157873,,,,,,,,,,
acc,1778674690.0,489.0,-0.018683961760116514,0.3245150046956014,-9.810360309962105,,,,,,,,,,
acc,1778674690.0,489.0,-0.018834272754297766,0.3247974667528361,-9.81027289663881,,,,,,,,,,
acc,1778674690.0,489.0,-0.018983200858744557,0.3250773301054221,-9.810507078667248,,,,,,,,,,
acc,1778674690.0,489.0,-0.01913075910110276,0.32535461923470677,-9.810739106655763,,,,,,,,,,
acc,1778674690.0,489.0,-0.01895622559936984,0.32530861447408604,-9.81064825698189,,,,,,,,,,
acc,1778674690.0,489.0,-0.018783296786737586,0.3252630326886375,-9.810878963522544,,,,,,,,,,
acc,1778674690.0,489.0,-0.018932646823856286,0.32521786990114954,-9.811107549357107,,,,,,,,,,
acc,1778674690.0,489.0,-0.019080624286158525,0.32517312217418615,-9.811013358190113,,,,,,,,,,
acc,1778674690.0,489.0,-0.019227242064446478,0.32544944008906257,-9.811240686973704,,,,,,,,,,
acc,1778674690.0,489.0,-0.019372512921012077,0.32540258644703274,-9.811145294244891,,,,,,,,,,
acc,1778674690.0,489.0,-0.019516449491115404,0.3256767753141991,-9.811050777680986,,,,,,,,,,
acc,1778674690.0,489.0,-0.01965906428444109,0.32562785470601163,-9.810565300987038,,,,,,,,,,
acc,1778674690.0,489.0,-0.01980036968653319,0.325579383253301,-9.81047608498908,,,,,,,,,,
acc,1778674690.0,489.0,-0.01994037796020893,0.32585190828523436,-9.810387687959148,,,,,,,,,,
acc,1778674690.0,489.0,-0.02007910124695176,0.32580140004550734,-9.810300102231471,,,,,,,,,,
acc,1778674690.0,489.0,-0.020216551568284117,0.3257513552841452,-9.810213320216022,,,,,,,,,,
acc,1778674690.0,489.0,-0.020352740827120283,0.32570176966737496,-9.810127334397656,,,,,,,,,,
acc,1778674690.0,489.0,-0.020487680809099736,0.3256526389041224,-9.81036261304208,,,,,,,,,,
acc,1778674690.0,489.0,-0.020300934697107982,0.32560395874553394,-9.81027527621763,,,,,,,,,,
acc,1778674690.0,489.0,-0.020115901048900597,0.32555572498450475,-9.809797097673624,,,,,,,,,,
acc,1778674690.0,489.0,-0.020252977141121776,0.3255079334552139,-9.809714924581531,,,,,,,,,,
acc,1778674690.0,489.0,-0.020068400530839005,0.3254605800326659,-9.809633504773258,,,,,,,,,,
acc,1778674690.0,489.0,-0.01988551567434185,0.3254136606322388,-9.809552831225677,,,,,,,,,,
acc,1778674690.0,489.0,-0.020024669580571794,0.32536717120923847,-9.809793268871477,,,,,,,,,,
acc,1778674690.0,489.0,-0.019842201896805134,0.3253211077584593,-9.809711147774804,,,,,,,,,,
acc,1778674690.0,489.0,-0.01966140587395314,0.32527546631375087,-9.80962977902301,,,,,,,,,,
acc,1778674690.0,489.0,-0.019482265954215774,0.32523024294759056,-9.80954915561418,,,,,,,,,,
acc,1778674690.0,489.0,-0.01894888027171787,0.324829547311243,-9.809825166184737,,,,,,,,,,
acc,1778674690.0,489.0,-0.018776248749834572,0.32478839073331667,-9.809742770383494,,,,,,,,,,
acc,1778674690.0,489.0,-0.018249344610100734,0.3247476109922382,-9.80998140788073,,,,,,,,,,
acc,1778674690.0,489.0,-0.017727264238746692,0.32502746892073037,-9.809897596335292,,,,,,,,,,
acc,1778674690.0,489.0,-0.01756578409252836,0.3249845150503219,-9.809814551975519,,,,,,,,,,
acc,1778674690.0,489.0,-0.017405781892447684,0.3249419543149728,-9.809732267678786,,,,,,,,,,
acc,1778674690.0,489.0,-0.01724724392235312,0.3248997830661739,-9.809970958685758,,,,,,,,,,
acc,1778674690.0,489.0,-0.017090156598489156,0.32485799769063345,-9.810207465634177,,,,,,,,,,
acc,1778674690.0,489.0,-0.01693450646808221,0.32481659460990103,-9.81044180877822,,,,,,,,,,
acc,1778674690.0,489.0,-0.016780280207945145,0.32477557027999643,-9.810353825676346,,,,,,,,,,
acc,1778674690.0,489.0,-0.016947625230326984,0.3247349211910431,-9.810586817051556,,,,,,,,,,
acc,1778674690.0,489.0,-0.01711343976350907,0.3246946438669068,-9.810497520395625,,,,,,,,,,
acc,1778674690.0,489.0,-0.01727773798067236,0.32497487969711836,-9.810409040326439,,,,,,,,,,
acc,1778674690.0,489.0,-0.017440533919006383,0.32493242043151355,-9.810321369284502,,,,,,,,,,
acc,1778674690.0,489.0,-0.01760184148114068,0.3248903493534829,-9.810234499782785,,,,,,,,,,
acc,1778674690.0,489.0,-0.018117348263403922,0.32484866287176895,-9.810504098232808,,,,,,,,,,
acc,1778674690.0,489.0,-0.01827248190809684,0.32512745514793395,-9.810415571294769,,,,,,,,,,
acc,1778674690.0,489.0,-0.018781846285683128,0.32508361289647886,-9.810292291331958,,,,,,,,,,
acc,1778674690.0,489.0,-0.018930919419914885,0.3250401713054062,-9.810205698886682,,,,,,,,,,
acc,1778674690.0,489.0,-0.01907863036127172,0.32499712667268643,-9.81043996227921,,,,,,,,,,
acc,1778674690.0,489.0,-0.01922499169241875,0.3249544753315893,-9.81035203131734,,,,,,,,,,
acc,1778674690.0,489.0,-0.019370015876145046,0.32491221365031747,-9.810584947159915,,,,,,,,,,
acc,1778674690.0,489.0,-0.019513715256603323,0.3248703380316459,-9.810495702097848,,,,,,,,,,
acc,1778674690.0,489.0,-0.019656102060534284,0.3251488680388481,-9.810407272216565,,,,,,,,,,
acc,1778674691.0,490.0,-0.01979718839847583,0.325104840910323,-9.810319649994769,,,,,,,,,,
acc,1778674691.0,490.0,-0.019936986265957416,0.3250612158593864,-9.81023282798259,,,,,,,,,,
acc,1778674691.0,490.0,-0.020075507544679794,0.32501798917825797,-9.810466792768999,,,,,,,,,,
acc,1778674691.0,490.0,-0.01989278850640002,0.32497515719431475,-9.81069862125347,,,,,,,,,,
acc,1778674691.0,490.0,-0.02003170400525557,0.324932716269732,-9.810608357726396,,,,,,,,,,
acc,1778674691.0,490.0,-0.020169351302695378,0.32489066280112855,-9.81051891824224,,,,,,,,,,
acc,1778674691.0,490.0,-0.019985793684949994,0.3248489932192158,-9.810430295209821,,,,,,,,,,
acc,1778674691.0,490.0,-0.019803911542396347,0.32480770398845166,-9.810342481109737,,,,,,,,,,
acc,1778674691.0,490.0,-0.01994362058580871,0.3250867318449799,-9.810575408731909,,,,,,,,,,
acc,1778674691.0,490.0,-0.020082054598245053,0.32504328135839844,-9.81048627873697,,,,,,,,,,
acc,1778674691.0,490.0,-0.020219225314241387,0.325000227384524,-9.810717885707538,,,,,,,,,,
acc,1778674691.0,490.0,-0.02003523795272902,0.3249575662749492,-9.810947379281776,,,,,,,,,,
acc,1778674691.0,490.0,-0.019852929336356143,0.3249152944156455,-9.810854871344274,,,,,,,,,,
acc,1778674691.0,490.0,-0.019672284025442494,0.32487340822661753,-9.811083107162673,,,,,,,,,,
acc,1778674691.0,490.0,-0.01949328672561191,0.32483190416156166,-9.811309260806029,,,,,,,,,,
acc,1778674691.0,490.0,-0.01931592228633625,0.3247907787075282,-9.811533351416232,,,,,,,,,,
acc,1778674691.0,490.0,-0.019140175699496262,0.32475002838458783,-9.81175539795525,,,,,,,,,,
acc,1778674691.0,490.0,-0.01896603209795911,0.32470964974550165,-9.811975419206922,,,,,,,,,,
acc,1778674691.0,490.0,-0.01879347675417232,0.3249895021801284,-9.811873570973999,,,,,,,,,,
acc,1778674691.0,490.0,-0.018622495078773876,0.3252668024194994,-9.811772651575506,,,,,,,,,,
acc,1778674691.0,490.0,-0.0184530726192183,0.32554157390293526,-9.811992501426387,,,,,,,,,,
acc,1778674691.0,490.0,-0.01828519505841837,0.3254939976467223,-9.812210346550374,,,,,,,,,,
acc,1778674691.0,490.0,-0.018118848213402358,0.32576669077659515,-9.812426205351901,,,,,,,,,,
acc,1778674691.0,490.0,-0.017954018033986465,0.32571706854626487,-9.812995449581837,,,,,,,,,,
acc,1778674691.0,490.0,-0.017790690601462305,0.325667898718842,-9.813204157618571,,,,,,,,,,
acc,1778674691.0,490.0,-0.017628852127299182,0.32561917714328054,-9.813091146554621,,,,,,,,,,
acc,1778674691.0,490.0,-0.017468488951860966,0.3258907099886981,-9.812588292516649,,,,,,,,,,
acc,1778674691.0,490.0,-0.0169542616277323,0.3261597677167812,-9.812800692193726,,,,,,,,,,
acc,1778674691.0,490.0,-0.01680004072805703,0.32642637302645244,-9.813011155881517,,,,,,,,,,
acc,1778674691.0,490.0,-0.016647225450054138,0.3266905484047588,-9.812509057434966,,,,,,,,,,
acc,1778674691.0,490.0,-0.01649580290719374,0.32695231612894865,-9.812402379461213,,,,,,,,,,
acc,1778674691.0,490.0,-0.016665532384462445,0.3272116982685262,-9.81229667368269,,,,,,,,,,
acc,1778674691.0,490.0,-0.016513948598370694,0.32714894105427667,-9.811801100368243,,,,,,,,,,
acc,1778674691.0,490.0,-0.016363746107965142,0.32708675571035417,-9.812020637350193,,,,,,,,,,
acc,1778674691.0,490.0,-0.016214912257571965,0.3270251369971822,-9.811918409016117,,,,,,,,,,
acc,1778674691.0,490.0,-0.016067434509325906,0.32696407972395836,-9.81142630081099,,,,,,,,,,
acc,1778674691.0,490.0,-0.016241045904007278,0.3269035787481793,-9.811329481302918,,,,,,,,,,
acc,1778674691.0,490.0,-0.016413075587308732,0.3268436289751716,-9.811233543882787,,,,,,,,,,
acc,1778674691.0,490.0,-0.016938806769938638,0.32678422535762713,-9.811102956329123,,,,,,,,,,
acc,1778674691.0,490.0,-0.017104485310750553,0.3267253628951437,-9.811009082007137,,,,,,,,,,
acc,1778674691.0,490.0,-0.01762391266367271,0.3266670366337708,-9.810880539747032,,,,,,,,,,
acc,1778674691.0,490.0,-0.018138608559542427,0.32660924166555977,-9.811143943777735,,,,,,,,,,
acc,1778674691.0,490.0,-0.018648616300620927,0.3265519731281194,-9.811014178781509,,,,,,,,,,
acc,1778674691.0,490.0,-0.01950921242341222,0.32649522620417587,-9.810921117256068,,,,,,,,,,
acc,1778674691.0,490.0,-0.02000674167381593,0.3264389961211375,-9.810793382265693,,,,,,,,,,
acc,1778674691.0,490.0,-0.020854963586899727,0.3263832781506643,-9.810702331184801,,,,,,,,,,
acc,1778674691.0,490.0,-0.021340241533834865,0.32632806760824173,-9.810967337547952,,,,,,,,,,
acc,1778674691.0,490.0,-0.02182110019047929,0.3262733598527593,-9.811229930572408,,,,,,,,,,
acc,1778674691.0,490.0,-0.022297579972445317,0.32621915028609366,-9.811490132328807,,,,,,,,,,
acc,1778674691.0,490.0,-0.022769720921133673,0.32616543435269585,-9.81210317010208,,,,,,,,,,
acc,1778674691.0,490.0,-0.02288235260484693,0.32575700652997,-9.811964696358066,,,,,,,,,,
acc,1778674691.0,490.0,-0.02299395873872151,0.32535229758166645,-9.812218207086737,,,,,,,,,,
acc,1778674691.0,490.0,-0.023104548697495852,0.3249512735128748,-9.81246940959738,,,,,,,,,,
acc,1778674691.0,490.0,-0.022894460521929786,0.3245539006430369,-9.812718324987586,,,,,,,,,,
acc,1778674691.0,490.0,-0.022686285066904628,0.32416014560294354,-9.812964974159911,,,,,,,,,,
acc,1778674691.0,490.0,-0.022480004853396043,0.32412515546267834,-9.8131738616292,,,,,,,,,,
acc,1778674691.0,490.0,-0.022275602563860894,0.3240904838639839,-9.813061177966212,,,,,,,,,,
acc,1778674691.0,490.0,-0.022073061040698203,0.324056127896514,-9.813269186093784,,,,,,,,,,
acc,1778674691.0,490.0,-0.021872363284726037,0.3243417472280687,-9.81347530069081,,,,,,,,,,
acc,1778674691.0,490.0,-0.021318327705291643,0.3246247666049204,-9.813359879869788,,,,,,,,,,
acc,1778674691.0,490.0,-0.021124496355407835,0.32490520977465437,-9.81356516555463,,,,,,,,,,
acc,1778674691.0,490.0,-0.02057727184864091,0.32486344763354935,-9.81344893003481,,,,,,,,,,
acc,1778674691.0,490.0,-0.020035028194816625,0.32514171505748124,-9.813333752493978,,,,,,,,,,
acc,1778674691.0,490.0,-0.01949771991198034,0.325417449758418,-9.813219623271351,,,,,,,,,,
acc,1778674691.0,490.0,-0.01896530193743419,0.3256906748615374,-9.813106532795198,,,,,,,,,,
acc,1778674691.0,490.0,-0.01879287330662633,0.32596141327890166,-9.812994471581996,,,,,,,,,,
acc,1778674691.0,490.0,-0.018622013945255856,0.32622968771147465,-9.81320306749754,,,,,,,,,,
acc,1778674691.0,490.0,-0.018452709528643575,0.326850657809814,-9.813054618787845,,,,,,,,,,
acc,1778674691.0,490.0,-0.018284945864024967,0.3271108427953134,-9.813262664109594,,,,,,,,,,
acc,1778674691.0,490.0,-0.017763578020729177,0.32704903134307833,-9.813149187477151,,,,,,,,,,
acc,1778674691.0,490.0,-0.017602082435859322,0.32730740831279,-9.813036743482588,,,,,,,,,,
acc,1778674691.0,490.0,-0.01708693161986253,0.32724381087777205,-9.812534678145159,,,,,,,,,,
acc,1778674691.0,490.0,-0.016576468440985113,0.3271807921503633,-9.812427822685288,,,,,,,,,,
acc,1778674691.0,490.0,-0.016425769086464186,0.3271183468504441,-9.812641557508156,,,,,,,,,,
acc,1778674691.0,490.0,-0.016276440960196648,0.3267013536336205,-9.812498222332922,,,,,,,,,,
acc,1778674691.0,490.0,-0.016128471552926626,0.3266432679088409,-9.812391700861324,,,,,,,,,,
acc,1778674691.0,490.0,-0.016301449808481323,0.3265857106868734,-9.811895519685196,,,,,,,,,,
acc,1778674691.0,490.0,-0.016472854228149654,0.32652867714703676,-9.811794478940273,,,,,,,,,,
acc,1778674691.0,490.0,-0.016642699166531043,0.32611705727188617,-9.811658848783969,,,,,,,,,,
acc,1778674691.0,490.0,-0.016810998846351576,0.32606428498189927,-9.81155996104461,,,,,,,,,,
acc,1778674691.0,490.0,-0.01697776735970108,0.3260119928066762,-9.81107135559379,,,,,,,,,,
acc,1778674691.0,490.0,-0.01714301866925787,0.3259601763680594,-9.810587195310873,,,,,,,,,,
acc,1778674691.0,490.0,-0.017306766609501402,0.32622842785847167,-9.81049805158423,,,,,,,,,,
acc,1778674691.0,490.0,-0.01782412670046243,0.3261746446299341,-9.810374211369448,,,,,,,,,,
acc,1778674691.0,490.0,-0.018336780313741436,0.3261213506729295,-9.81025149774177,,,,,,,,,,
acc,1778674691.0,490.0,-0.018844770357071983,0.32638813165867075,-9.809810319388992,,,,,,,,,,
acc,1778674691.0,490.0,-0.019703225085916674,0.32665248580581235,-9.809728240064596,,,,,,,,,,
acc,1778674691.0,490.0,-0.020198787321982326,0.32691443523663666,-9.809611400848842,,,,,,,,,,
acc,1778674691.0,490.0,-0.020689841725472197,0.32717400187052537,-9.809495624449392,,,,,,,,,,
acc,1778674691.0,490.0,-0.021531508516668192,0.3271116252980407,-9.809735989402116,,,,,,,,,,
acc,1778674691.0,490.0,-0.02201044243983163,0.3270498161071237,-9.809299510752906,,,,,,,,,,
acc,1778674691.0,490.0,-0.02248502002467384,0.3269885691268457,-9.809186571522606,,,,,,,,,,
acc,1778674691.0,490.0,-0.022955280971336263,0.32692787923367406,-9.809465246995572,,,,,,,,,,
acc,1778674691.0,490.0,-0.02377633548258287,0.32686774135103014,-9.80970588248138,,,,,,,,,,
acc,1778674691.0,490.0,-0.024589922142295103,0.32680815044885225,-9.80962475637063,,,,,,,,,,
acc,1778674691.0,490.0,-0.02539610899606308,0.3267491015431623,-9.809544368125316,,,,,,,,,,
acc,1778674691.0,490.0,-0.026550037606990682,0.3266905896956368,-9.809464711022486,,,,,,,,,,
acc,1778674691.0,490.0,-0.02804853442310917,0.32663261001318256,-9.809030715218439,,,,,,,,,,
acc,1778674691.0,490.0,-0.029178341281019437,0.32622009630011356,-9.80892022357377,,,,,,,,,,
acc,1778674691.0,490.0,-0.030297872867464385,0.32581133428173054,-9.808491181410075,,,,,,,,,,
acc,1778674691.0,490.0,-0.031052155920406603,0.32540628978140074,-9.808385595020646,,,,,,,,,,
acc,1778674691.0,490.0,-0.03215464431788716,0.3250049289353422,-9.807961416627196,,,,,,,,,,
acc,1778674691.0,490.0,-0.03289204291944123,0.32496227252356313,-9.807505583139069,,,,,,,,,,
acc,1778674691.0,490.0,-0.03397779723286192,0.324920004036931,-9.80680536185782,,,,,,,,,,
acc,1778674691.0,490.0,-0.03505367763795636,0.3248781199421976,-9.806111508426698,,,,,,,,,,
acc,1778674691.0,490.0,-0.03611977406320644,0.3248366167384413,-9.805423964849302,,,,,,,,,,
acc,1778674691.0,490.0,-0.03717617561441736,0.32479549095676713,-9.804387616756106,,,,,,,,,,
acc,1778674691.0,490.0,-0.03822297058234167,0.3250742916989565,-9.80336069288636,,,,,,,,,,
acc,1778674691.0,490.0,-0.038550147903167326,0.3250310059848302,-9.801988062688588,,,,,,,,,,
acc,1778674691.0,490.0,-0.038874350053205706,0.3249881138872047,-9.800627914435642,,,,,,,,,,
acc,1778674691.0,490.0,-0.03884055328075986,0.3245905700677405,-9.799280134468225,,,,,,,,,,
acc,1778674691.0,490.0,-0.038807063829942645,0.32487122869355795,-9.798299650473167,,,,,,,,,,
acc,1778674691.0,490.0,-0.03877387890252179,0.3251493352584766,-9.79658249319902,,,,,,,,,,
acc,1778674691.0,490.0,-0.03874099572584317,0.32542491299874793,-9.795235996626005,,,,,,,,,,
acc,1778674691.0,490.0,-0.038388877226101265,0.32537844152271334,-9.793227164075077,,,,,,,,,,
acc,1778674691.0,490.0,-0.03768492569232391,0.325332392602308,-9.791556130543576,,,,,,,,,,
acc,1778674691.0,490.0,-0.03663233243018216,0.32560630340659347,-9.790645868733264,,,,,,,,,,
acc,1778674691.0,490.0,-0.035234268723135384,0.3258777236515129,-9.78935335000709,,,,,,,,,,
acc,1778674691.0,490.0,-0.03349388601766859,0.32614667600949515,-9.788818155627634,,,,,,,,,,
acc,1778674691.0,490.0,-0.031094760351951793,0.326093645368799,-9.78789728757972,,,,,,,,,,
acc,1778674691.0,490.0,-0.02871744826108166,0.3260410968986979,-9.78733982074806,,,,,,,,,,
acc,1778674691.0,490.0,-0.02671678747649666,0.3259890262102417,-9.78710695790794,,,,,,,,,,
acc,1778674691.0,490.0,-0.02437928182795384,0.3259374289545629,-9.786876212283941,,,,,,,,,,
acc,1778674691.0,490.0,-0.02206302884305097,0.3262058340977808,-9.786967088791824,,,,,,,,,,
acc,1778674691.0,490.0,-0.019412811374276216,0.3264717989180257,-9.78741217185769,,,,,,,,,,
acc,1778674691.0,490.0,-0.016786689288753313,0.3264158143862786,-9.787533677055103,,,,,,,,,,
acc,1778674691.0,490.0,-0.014184443290884644,0.32667986910178165,-9.78797360780467,,,,,,,,,,
acc,1778674691.0,490.0,-0.011605856086962952,0.3269415231156947,-9.789119579666147,,,,,,,,,,
acc,1778674692.0,491.0,-0.009050712366733367,0.32688126995432354,-9.789545094109085,,,,,,,,,,
acc,1778674692.0,491.0,-0.006163771387968739,0.32682156458573614,-9.791031803993535,,,,,,,,,,
acc,1778674692.0,491.0,-0.00330307686017495,0.3267624020249307,-9.79250499754413,,,,,,,,,,
acc,1778674692.0,491.0,-0.0008234153124659863,0.32702330289180004,-9.79396479775848,,,,,,,,,,
acc,1778674692.0,491.0,0.0009236632446958076,0.3272818318343163,-9.795801850607226,,,,,,,,,,
acc,1778674692.0,491.0,0.002654858742448172,0.3272184866355058,-9.79726717900612,,,,,,,,,,
acc,1778674692.0,491.0,0.004050801848636308,0.32747524026100827,-9.799038708848087,,,,,,,,,,
acc,1778674692.0,491.0,0.005434054345685339,0.3277296597226814,-9.800794133597588,,,,,,,,,,
acc,1778674692.0,491.0,0.00644972017754945,0.327662244979617,-9.802533599791781,,,,,,,,,,
acc,1778674692.0,491.0,0.007101132954907398,0.32759544309885286,-9.804257252631139,,,,,,,,,,
acc,1778674692.0,491.0,0.007391605003083037,0.3275292485043286,-9.806320245733179,,,,,,,,,,
acc,1778674692.0,491.0,0.007679436431402534,0.3274636556708404,-9.808755001633545,,,,,,,,,,
acc,1778674692.0,491.0,0.0072901342059006075,0.3277181772488042,-9.8111676238446,,,,,,,,,,
acc,1778674692.0,491.0,0.006549354720578349,0.32765086768621315,-9.813203297461099,,,,,,,,,,
acc,1778674692.0,491.0,0.005460302997488988,0.32758417000750034,-9.815575481047356,,,,,,,,,,
acc,1778674692.0,491.0,0.004026136688405173,0.3278375945526498,-9.817535586842537,,,,,,,,,,
acc,1778674692.0,491.0,0.001575482902873497,0.3277692001560776,-9.819158368250088,,,,,,,,,,
acc,1778674692.0,491.0,-0.0008528934364703507,0.32802094198608767,-9.821440907301874,,,,,,,,,,
acc,1778674692.0,491.0,-0.003614207295207052,0.3279508815885808,-9.823028189333872,,,,,,,,,,
acc,1778674692.0,491.0,-0.0063504200044430005,0.3278814580605505,-9.824601042508586,,,,,,,,,,
acc,1778674692.0,491.0,-0.009061759897111126,0.32781266560870537,-9.826514599814555,,,,,,,,,,
acc,1778674692.0,491.0,-0.01210345423810907,0.3277444984925596,-9.827665253143866,,,,,,,,,,
acc,1778674692.0,491.0,-0.01547249950378524,0.32767695102394906,-9.829160456283175,,,,,,,,,,
acc,1778674692.0,491.0,-0.019130430463682558,0.3276100175665515,-9.830287059227132,,,,,,,,,,
acc,1778674692.0,491.0,-0.022755110769423277,0.32754369253541127,-9.831048413321565,,,,,,,,,,
acc,1778674692.0,491.0,-0.026027333528539358,0.32747797039646853,-9.831802846734089,,,,,,,,,,
acc,1778674692.0,491.0,-0.02926981206536779,0.32741284566609297,-9.83219542482244,,,,,,,,,,
acc,1778674692.0,491.0,-0.03248281691516401,0.32734831291062155,-9.83258443442959,,,,,,,,,,
acc,1778674692.0,491.0,-0.03531161984284588,0.3269293704405854,-9.832650409519337,,,,,,,,,,
acc,1778674692.0,491.0,-0.03811470961475311,0.3265142360594363,-9.832715784910977,,,,,,,,,,
acc,1778674692.0,491.0,-0.04018232086857051,0.326102875132801,-9.832425561903666,,,,,,,,,,
acc,1778674692.0,491.0,-0.042231138215399124,0.3260502478065507,-9.83210247929926,,,,,,,,,,
acc,1778674692.0,491.0,-0.04426133257959711,0.3256431049697469,-9.831817830964505,,,,,,,,,,
acc,1778674692.0,491.0,-0.0459180709480604,0.3255946561830548,-9.831145270071648,,,,,,,,,,
acc,1778674692.0,491.0,-0.047240255065224106,0.32554664777337305,-9.83019482463256,,,,,,,,,,
acc,1778674692.0,491.0,-0.04819542903681732,0.32549907573579545,-9.829288524747206,,,,,,,,,,
acc,1778674692.0,491.0,-0.04878692030160099,0.3250969444894201,-9.828354956198135,,,,,,,,,,
acc,1778674692.0,491.0,-0.04901804418800977,0.3246984683782359,-9.827110379452092,,,,,,,,,,
acc,1778674692.0,491.0,-0.048892067674090205,0.3243036141628548,-9.826196608427283,,,,,,,,,,
acc,1778674692.0,491.0,-0.04844774336452904,0.3242673389286232,-9.82532664923873,,,,,,,,,,
acc,1778674692.0,491.0,-0.04800745764636962,0.3242313934104254,-9.824464597359373,,,,,,,,,,
acc,1778674692.0,491.0,-0.047216184785474416,0.3245152756235665,-9.823255382786947,,,,,,,,,,
acc,1778674692.0,491.0,-0.04643210397012383,0.3244770770014436,-9.82205715902023,,,,,,,,,,
acc,1778674692.0,491.0,-0.045655149800899845,0.32475872570782005,-9.820869826116546,,,,,,,,,,
acc,1778674692.0,491.0,-0.04417526418346703,0.32503781447076757,-9.819693285043238,,,,,,,,,,
acc,1778674692.0,491.0,-0.04270882939434077,0.32499486728088545,-9.818527437669353,,,,,,,,,,
acc,1778674692.0,491.0,-0.040900736492676865,0.3249523104407805,-9.817727182478034,,,,,,,,,,
acc,1778674692.0,491.0,-0.039109077400917625,0.3252296388711574,-9.816934200829838,,,,,,,,,,
acc,1778674692.0,491.0,-0.03733370269035384,0.3251849485920893,-9.816148426588173,,,,,,,,,,
acc,1778674692.0,491.0,-0.03525497569805458,0.3251406645012589,-9.814979303109737,,,,,,,,,,
acc,1778674692.0,491.0,-0.03319514210730863,0.3250967829053754,-9.814175790593357,,,,,,,,,,
acc,1778674692.0,491.0,-0.03079903657891604,0.3250533001447691,-9.813379581118962,,,,,,,,,,
acc,1778674692.0,491.0,-0.029099189535873593,0.3250102125930839,-9.812874599162457,,,,,,,,,,
acc,1778674692.0,491.0,-0.027414792119244337,0.3252870128475136,-9.812374206902774,,,,,,,,,,
acc,1778674692.0,491.0,-0.02574570385827809,0.32524180148475795,-9.811629877966476,,,,,,,,,,
acc,1778674692.0,491.0,-0.02409178556080549,0.32519700103779303,-9.811140798437604,,,,,,,,,,
acc,1778674692.0,491.0,-0.022807881785846314,0.32515260777057364,-9.810407679922909,,,,,,,,,,
acc,1778674692.0,491.0,-0.021180664935377153,0.3251086179810585,-9.810320195944943,,,,,,,,,,
acc,1778674692.0,491.0,-0.019568237346892045,0.32506502800089976,-9.810233507081328,,,,,,,,,,
acc,1778674692.0,491.0,-0.0183254459406781,0.3250218341951355,-9.810467100250607,,,,,,,,,,
acc,1778674692.0,491.0,-0.017448939918852217,0.3249790329618848,-9.810698570378028,,,,,,,,,,
acc,1778674692.0,491.0,-0.016935389877140567,0.324936620732046,-9.810608443250633,,,,,,,,,,
acc,1778674692.0,491.0,-0.016781487609529192,0.32521408717592465,-9.810519135250518,,,,,,,,,,
acc,1778674692.0,491.0,-0.016628984090425365,0.32516953894738393,-9.810750131835333,,,,,,,,,,
acc,1778674692.0,491.0,-0.016797350123630275,0.32512539559652265,-9.811334008671711,,,,,,,,,,
acc,1778674692.0,491.0,-0.01696418596219389,0.3250816534424921,-9.811912578943641,,,,,,,,,,
acc,1778674692.0,491.0,-0.017484493633023613,0.32503830883793733,-9.812521386979377,,,,,,,,,,
acc,1778674692.0,491.0,-0.018000072513155656,0.3246403794528201,-9.812734187123253,,,,,,,,,,
acc,1778674692.0,491.0,-0.018865944001566878,0.324246066619911,-9.813335527681303,,,,,,,,,,
acc,1778674692.0,491.0,-0.02007893329619836,0.3242103155696082,-9.81389590702023,,,,,,,,,,
acc,1778674692.0,491.0,-0.021280898482130516,0.32417488943846706,-9.814451193418295,,,,,,,,,,
acc,1778674692.0,491.0,-0.022826917300343023,0.32378480775005386,-9.81500143317457,,,,,,,,,,
acc,1778674692.0,491.0,-0.024358885379619027,0.3237532484929186,-9.815937154398409,,,,,,,,,,
acc,1778674692.0,491.0,-0.026196411530661906,0.32372197605624103,-9.816473889569634,,,,,,,,,,
acc,1778674692.0,491.0,-0.02801723770506606,0.3236909878326407,-9.81700574673419,,,,,,,,,,
acc,1778674692.0,491.0,-0.029821515715185473,0.323660281238458,-9.81753277023595,,,,,,,,,,
acc,1778674692.0,491.0,-0.03160939599228451,0.32362985371353764,-9.818055004015378,,,,,,,,,,
acc,1778674692.0,491.0,-0.033061547481963674,0.32359970272101457,-9.818607987384556,,,,,,,,,,
acc,1778674692.0,491.0,-0.034819981398478965,0.32356982574710147,-9.819120449377865,,,,,,,,,,
acc,1778674692.0,491.0,-0.03624295466741288,0.32354022030087853,-9.819308774356276,,,,,,,,,,
acc,1778674692.0,491.0,-0.03797247514857563,0.3238303724416255,-9.819459892108503,,,,,,,,,,
acc,1778674692.0,491.0,-0.0396862774800892,0.32411788763483756,-9.819609636479223,,,,,,,,,,
acc,1778674692.0,491.0,-0.0413845045424605,0.32440278985079174,-9.8194385318564,,,,,,,,,,
acc,1778674692.0,491.0,-0.04306729791653789,0.3246851028417284,-9.819268982252616,,,,,,,,,,
acc,1778674692.0,491.0,-0.044415319302297425,0.3249648501438386,-9.819455956815197,,,,,,,,,,
acc,1778674692.0,491.0,-0.04539611578740047,0.3249225676009845,-9.81960573655788,,,,,,,,,,
acc,1778674692.0,491.0,-0.04601301589224076,0.32488066932466847,-9.819754155092383,,,,,,,,,,
acc,1778674692.0,491.0,-0.046624309578602176,0.3248391518219473,-9.81958173770732,,,,,,,,,,
acc,1778674692.0,491.0,-0.046875074487723524,0.3247980116316472,-9.819375391742547,,,,,,,,,,
acc,1778674692.0,491.0,-0.04712356044121871,0.3247572453240744,-9.819170921053301,,,,,,,,,,
acc,1778674692.0,491.0,-0.04736978815422454,0.3247168495007285,-9.818968308593798,,,,,,,,,,
acc,1778674692.0,491.0,-0.047258796361254206,0.324321848089214,-9.818767537473281,,,,,,,,,,
acc,1778674692.0,491.0,-0.04714881325832872,0.3242854089455692,-9.818604086387834,,,,,,,,,,
acc,1778674692.0,491.0,-0.04672035277780891,0.32424930095920707,-9.818051643924377,,,,,,,,,,
acc,1778674692.0,491.0,-0.04594081399818385,0.32385854899788824,-9.817539726506915,,,,,,,,,,
acc,1778674692.0,491.0,-0.0455233315436907,0.3234713481612045,-9.817351937915623,,,,,,,,,,
acc,1778674692.0,491.0,-0.04475467138151578,0.3230876661712832,-9.817165855930345,,,,,,,,,,
acc,1778674692.0,491.0,-0.04399299672376848,0.32270747104378994,-9.816661988807995,,,,,,,,,,
acc,1778674692.0,491.0,-0.043238244076439857,0.3223307310852548,-9.816162700771264,,,,,,,,,,
acc,1778674692.0,491.0,-0.04213537021625999,0.32231238610970964,-9.815632445807386,,,,,,,,,,
acc,1778674692.0,491.0,-0.04104251911555501,0.32229420785067137,-9.815107009724576,,,,,,,,,,
acc,1778674692.0,491.0,-0.03995959967471095,0.3222761947928078,-9.814586348722697,,,,,,,,,,
acc,1778674692.0,491.0,-0.038886521622527224,0.3222583454345665,-9.814460894457214,,,,,,,,,,
acc,1778674692.0,491.0,-0.03782319550867306,0.32256014269151984,-9.813946105417964,,,,,,,,,,
acc,1778674692.0,491.0,-0.03641455321367283,0.32253971301306933,-9.813826469386198,,,,,,,,,,
acc,1778674692.0,491.0,-0.03537369169603764,0.3225194689953254,-9.81306897051653,,,,,,,,,,
acc,1778674692.0,491.0,-0.03434228930096535,0.32249940895080154,-9.81256683105674,,,,,,,,,,
acc,1778674692.0,491.0,-0.03367523907698181,0.32247953120735534,-9.811820779605027,,,,,,,,,,
acc,1778674692.0,491.0,-0.03301425084460599,0.322459834108049,-9.810726529213714,,,,,,,,,,
acc,1778674692.0,491.0,-0.03303371364561558,0.32275979959449713,-9.810245676939296,,,,,,,,,,
acc,1778674692.0,491.0,-0.033407978161753296,0.3227375556182636,-9.809804698743632,,,,,,,,,,
acc,1778674692.0,491.0,-0.03377884146459602,0.3230349971187077,-9.808693275346565,,,,,,,,,,
acc,1778674692.0,491.0,-0.03414633446738323,0.3233297355555222,-9.807272478130095,,,,,,,,,,
acc,1778674692.0,491.0,-0.035575404155846764,0.32330231241179624,-9.806539035785255,,,,,,,,,,
acc,1778674692.0,491.0,-0.03766593881758597,0.3232751384812212,-9.805812258740337,,,,,,,,,,
acc,1778674692.0,491.0,-0.04044742210035989,0.3232482114987504,-9.804772612654547,,,,,,,,,,
acc,1778674692.0,491.0,-0.04494299478490904,0.323221529219931,-9.80409739232012,,,,,,,,,,
acc,1778674692.0,491.0,-0.050782110640877384,0.3231950894207169,-9.804067255229054,,,,,,,,,,
acc,1778674692.0,491.0,-0.057278108613419296,0.32316888989728254,-9.803682423562957,,,,,,,,,,
acc,1778674692.0,491.0,-0.06371507325679446,0.3231429284658392,-9.803301089110764,,,,,,,,,,
acc,1778674692.0,491.0,-0.07076799161003723,0.3231172029624525,-9.802887715996574,,,,,,,,,,
acc,1778674692.0,491.0,-0.07985114741784242,0.3230917112428618,-9.801484185163421,,,,,,,,,,
acc,1778674692.0,491.0,-0.09165604417908801,0.32271148320202575,-9.800803345043988,,,,,,,,,,
acc,1778674692.0,491.0,-0.10541250717256533,0.3219797426573864,-9.801513086811267,,,,,,,,,,
acc,1778674692.0,491.0,-0.12113829576164989,0.32125465187924673,-9.801115962322113,,,,,,,,,,
acc,1778674692.0,491.0,-0.13952544829211325,0.32089111808054765,-9.801787367861682,,,,,,,,,,
acc,1778674692.0,491.0,-0.1591298994230305,0.3198209437525347,-9.802843143513691,,,,,,,,,,
acc,1778674693.0,492.0,-0.18065053056631938,0.31840551818989243,-9.801830482681785,,,,,,,,,,
acc,1778674693.0,492.0,-0.20438940027524202,0.31700295540453616,-9.802140427246043,,,,,,,,,,
acc,1778674693.0,492.0,-0.2296873959085451,0.3152936661646347,-9.802483050076251,,,,,,,,,,
acc,1778674693.0,492.0,-0.2564948627048742,0.31391938242257744,-9.80317752643999,,,,,,,,,,
acc,1778674693.0,492.0,-0.2851175460565234,0.31255758754709645,-9.803865691717903,,,,,,,,,,
acc,1778674693.0,492.0,-0.31521947769099645,0.31053372902299997,-9.80419263632286,,,,,,,,,,
acc,1778674693.0,492.0,-0.34749716651882084,0.30852826237650205,-9.805191048642735,,,,,,,,,,
acc,1778674693.0,492.0,-0.3819308307871879,0.30654102045656145,-9.80511547850206,,,,,,,,,,
acc,1778674693.0,492.0,-0.4174359594544301,0.30421686187550306,-9.806495974805802,,,,,,,,,,
acc,1778674693.0,492.0,-0.4526184348998434,0.3019138241094471,-9.80821890150276,,,,,,,,,,
acc,1778674693.0,492.0,-0.4885106122977087,0.29927674871390264,-9.80847079211748,,,,,,,,,,
acc,1778674693.0,492.0,-0.5254965034502252,0.29701860414085396,-9.810175772306682,,,,,,,,,,
acc,1778674693.0,492.0,-0.5631756989156617,0.29478098043499007,-9.81111981286706,,,,,,,,,,
acc,1778674693.0,492.0,-0.6032812528760452,0.2929186664278763,-9.811700308232135,,,,,,,,,,
acc,1778674693.0,492.0,-0.6451166779347686,0.2907183009097319,-9.814050377337656,,,,,,,,,,
acc,1778674693.0,492.0,-0.6876368411745021,0.28889290631960474,-9.815349677715648,,,,,,,,,,
acc,1778674693.0,492.0,-0.7301255698977669,0.2867291248491315,-9.817666583061353,,,,,,,,,,
acc,1778674693.0,492.0,-0.771163277144568,0.2849399816697967,-9.818542551740384,,,,,,,,,,
acc,1778674693.0,492.0,-0.8128929627645991,0.28352206309843364,-9.81976553503367,,,,,,,,,,
acc,1778674693.0,492.0,-0.8566572302199783,0.28176206401036114,-9.820977404529737,,,,,,,,,,
acc,1778674693.0,492.0,-0.9010887077031471,0.2803730245184878,-9.822888201730082,,,,,,,,,,
acc,1778674693.0,492.0,-0.9465008029014591,0.27899660783545915,-9.824462163792742,,,,,,,,,,
acc,1778674693.0,492.0,-0.9911452441404741,0.2779521700705211,-9.826341293408548,,,,,,,,,,
acc,1778674693.0,492.0,-1.0353839823122903,0.27691722355674386,-9.827138431909761,,,,,,,,,,
acc,1778674693.0,492.0,-1.079930644389292,0.27589168203768,-9.827963830290456,,,,,,,,,,
acc,1778674693.0,492.0,-1.1251019028771851,0.2745559893971142,-9.829491667745266,,,,,,,,,,
acc,1778674693.0,492.0,-1.1705726112622714,0.27252249506175386,-9.829585741748149,,,,,,,,,,
acc,1778674693.0,492.0,-1.215949579390379,0.2708624542360331,-9.831453805206504,,,,,,,,,,
acc,1778674693.0,492.0,-1.2609141888094784,0.26957246403842616,-9.832239988221769,,,,,,,,,,
acc,1778674693.0,492.0,-1.3054701870027863,0.26861366690929583,-9.833338497296713,,,,,,,,,,
acc,1778674693.0,492.0,-1.3493018170289155,0.268018556881888,-9.834107553427495,,,,,,,,,,
acc,1778674693.0,492.0,-1.3927351320684287,0.2674288548496303,-9.834514646770119,,,,,,,,,,
acc,1778674693.0,492.0,-1.436448196235197,0.2661700673898086,-9.836657388858615,,,,,,,,,,
acc,1778674693.0,492.0,-1.4794090492978917,0.26456775413270117,-9.838106223959867,,,,,,,,,,
acc,1778674693.0,492.0,-1.5216600308778234,0.26400941057411703,-9.839896857773821,,,,,,,,,,
acc,1778674693.0,492.0,-1.5631720974135563,0.2631011670388585,-9.84131625467303,,,,,,,,,,
acc,1778674693.0,492.0,-1.6035969901304834,0.2622011770443747,-9.843077717703704,,,,,,,,,,
acc,1778674693.0,492.0,-1.6432995535033599,0.2616643393276871,-9.844468209027173,,,,,,,,,,
acc,1778674693.0,492.0,-1.6833512637997934,0.26045793639423526,-9.846910967359504,,,,,,,,,,
acc,1778674693.0,492.0,-1.7226840455071029,0.2589075319172094,-9.848586094652951,,,,,,,,,,
acc,1778674693.0,492.0,-1.7620143609924548,0.2580456508799079,-9.850245999479627,,,,,,,,,,
acc,1778674693.0,492.0,-1.8016972063090357,0.25616219423376774,-9.85224578463117,,,,,,,,,,
acc,1778674693.0,492.0,-1.8413389098334638,0.2546508266938342,-9.853197989372829,,,,,,,,,,
acc,1778674693.0,492.0,-1.8813303226887095,0.2538276275579038,-9.85481598429172,,,,,,,,,,
acc,1778674693.0,492.0,-1.9213132845143104,0.25198250170246417,-9.855709338241441,,,,,,,,,,
acc,1778674693.0,492.0,-1.9609329079392723,0.2508640807325923,-9.856985041949194,,,,,,,,,,
acc,1778674693.0,492.0,-2.00054745909784,0.24940085900054454,-9.857858685008482,,,,,,,,,,
acc,1778674693.0,492.0,-2.0398020199996396,0.24759596077574095,-9.85875988359043,,,,,,,,,,
acc,1778674693.0,492.0,-2.079054835344029,0.2461624374586873,-9.859297928560128,,,,,,,,,,
acc,1778674693.0,492.0,-2.1175959747277537,0.24403200375709688,-9.860150553642253,,,,,,,,,,
acc,1778674693.0,492.0,-2.155786878677589,0.24227589402274516,-9.85996602401069,,,,,,,,,,
acc,1778674693.0,492.0,-2.1936307300146547,0.24089071569667653,-9.86045760468643,,,,,,,,,,
acc,1778674693.0,492.0,-2.2311306826323807,0.23916315185920575,-9.860270284864896,,,,,,,,,,
acc,1778674693.0,492.0,-2.2682898617595084,0.23780625993380225,-9.860404136626585,,,,,,,,,,
acc,1778674693.0,492.0,-2.305111364220703,0.2357517616329336,-9.860536772036953,,,,,,,,,,
acc,1778674693.0,492.0,-2.34124329484585,0.23336096023542946,-9.85960329242854,,,,,,,,,,
acc,1778674693.0,492.0,-2.3766919201228234,0.23099188475711688,-9.859388241422495,,,,,,,,,,
acc,1778674693.0,492.0,-2.4118184133620497,0.2283248685468673,-9.858216727917203,,,,,,,,,,
acc,1778674693.0,492.0,-2.4469806657085638,0.2256820882863764,-9.857304331276827,,,,,,,,,,
acc,1778674693.0,492.0,-2.4818233885675496,0.22338279287918908,-9.856151754889748,,,,,,,,,,
acc,1778674693.0,492.0,-2.516704449357374,0.22110439182362546,-9.853944743114294,,,,,,,,,,
acc,1778674693.0,492.0,-2.551268536115145,0.21884669524071443,-9.852787192519017,,,,,,,,,,
acc,1778674693.0,492.0,-2.5848086021635246,0.21629004591980655,-9.849865324735225,,,,,,,,,,
acc,1778674693.0,492.0,-2.618398843917362,0.21340166601186394,-9.848034917647574,,,,,,,,,,
acc,1778674693.0,492.0,-2.6520388054681656,0.21121396613704257,-9.845901665885417,,,,,,,,,,
acc,1778674693.0,492.0,-2.6853730715471285,0.2094011190752319,-9.843752305028884,,,,,,,,,,
acc,1778674693.0,492.0,-2.718049456701594,0.20693030434280021,-9.84197744855179,,,,,,,,,,
acc,1778674693.0,492.0,-2.750073939381213,0.2051563840051109,-9.839508775613734,,,,,,,,,,
acc,1778674693.0,492.0,-2.7818074071132384,0.20446348306935166,-9.837453003181073,,,,,,,,,,
acc,1778674693.0,492.0,-2.81396243126196,0.20271197947653827,-9.834315518341485,,,,,,,,,,
acc,1778674693.0,492.0,-2.8458252543445033,0.20097639225234173,-9.832271443784883,,,,,,,,,,
acc,1778674693.0,492.0,-2.8770435684152846,0.19996651249026623,-9.83095587999433,,,,,,,,,,
acc,1778674693.0,492.0,-2.9072682580074334,0.1975814329209508,-9.828942335390824,,,,,,,,,,
acc,1778674693.0,492.0,-2.937218288182559,0.19589246828742146,-9.82801198726761,,,,,,,,,,
acc,1778674693.0,492.0,-2.966896154903167,0.19421885170017225,-9.826735130211134,,,,,,,,,,
acc,1778674693.0,492.0,-2.997014266963292,0.19082109485649243,-9.825469876273143,,,,,,,,,,
acc,1778674693.0,492.0,-3.0268586882893516,0.18851912200794618,-9.824855057383862,,,,,,,,,,
acc,1778674693.0,492.0,-3.0564319060359417,0.1855281323395788,-9.823606888177538,,,,,,,,,,
acc,1778674693.0,492.0,-3.0853814216168822,0.18256432252239707,-9.822725024525871,,,,,,,,,,
acc,1778674693.0,492.0,-3.1140678659581864,0.18101182169162996,-9.822170652288108,,,,,,,,,,
acc,1778674693.0,492.0,-3.143203555882305,0.17844402494712505,-9.820946876991247,,,,,,,,,,
acc,1778674693.0,492.0,-3.1717195197994412,0.17625452544678427,-9.82076362622333,,,,,,,,,,
acc,1778674693.0,492.0,-3.1996213893821692,0.1747593631279573,-9.819907600015501,,,,,,,,,,
acc,1778674693.0,492.0,-3.2272697081414186,0.17260334705998165,-9.819094856289865,,,,,,,,,,
acc,1778674693.0,492.0,-3.2543118081182536,0.17149632680344518,-9.818537968617541,,,,,,,,,,
acc,1778674693.0,492.0,-3.2814631423537257,0.17142876982353936,-9.81738269900452,,,,,,,,,,
acc,1778674693.0,492.0,-3.309077672099651,0.17068739532331115,-9.817906277091735,,,,,,,,,,
acc,1778674693.0,492.0,-3.3347019239824465,0.16959778584399565,-9.818105628850839,,,,,,,,,,
acc,1778674693.0,492.0,-3.3607677629358665,0.16887304988885846,-9.817593234149012,,,,,,,,,,
acc,1778674693.0,492.0,-3.386951707743344,0.16850986266092607,-9.818860328312562,,,,,,,,,,
acc,1778674693.0,492.0,-3.4128977132151985,0.16814997579618787,-9.818660543989896,,,,,,,,,,
acc,1778674693.0,492.0,-3.4393178672972,0.16672846166849073,-9.819172509936905,,,,,,,,,,
acc,1778674693.0,492.0,-3.4654979356377504,0.16496489323500232,-9.820070289919272,,,,,,,,,,
acc,1778674693.0,492.0,-3.491440099987474,0.16428225733842045,-9.82056944521782,,,,,,,,,,
acc,1778674693.0,492.0,-3.516436596686013,0.16396078749388746,-9.821099559045777,,,,,,,,,,
acc,1778674693.0,492.0,-3.540850972978908,0.16364223891501706,-9.820879426521534,,,,,,,,,,
acc,1778674693.0,492.0,-3.5653984624567228,0.16297162229993836,-9.821406723444372,,,,,,,,,,
acc,1778674693.0,492.0,-3.5893679118582096,0.16333650256382531,-9.821893734251738,,,,,,,,,,
acc,1778674693.0,492.0,-3.6131195458133956,0.1636980670837336,-9.822021356769046,,,,,,,,,,
acc,1778674693.0,492.0,-3.637010315478832,0.16338190595085847,-9.82218331400663,,,,,,,,,,
acc,1778674693.0,492.0,-3.6603290129669186,0.16235868338072518,-9.821988827731765,,,,,,,,,,
acc,1778674693.0,492.0,-3.683790780376651,0.16134475904607218,-9.821157172353836,,,,,,,,,,
acc,1778674693.0,492.0,-3.7073943085281202,0.1603400484506332,-9.820581544622081,,,,,,,,,,
acc,1778674693.0,492.0,-3.730428383950552,0.1596994395906465,-9.820366119461971,,,,,,,,,,
acc,1778674693.0,492.0,-3.752223732447761,0.15870968036472533,-9.819833183737044,,,,,,,,,,
acc,1778674693.0,492.0,-3.774495462061264,0.15737395267461826,-9.819305090906854,,,,,,,,,,
acc,1778674693.0,492.0,-3.7969197756671718,0.1556953913320951,-9.81913675955383,,,,,,,,,,
acc,1778674693.0,492.0,-3.819495277627822,0.15474201765253356,-9.818331021588705,,,,,,,,,,
acc,1778674693.0,492.0,-3.8422205940752967,0.15379730746916823,-9.817497101998748,,,,,,,,,,
acc,1778674693.0,492.0,-3.8643844385308,0.1525062195062275,-9.816315797853186,,,,,,,,,,
acc,1778674693.0,492.0,-3.886346875773227,0.15193679806826382,-9.814825760352841,,,,,,,,,,
acc,1778674693.0,492.0,-3.908109736052946,0.14998817725434394,-9.814059197241942,,,,,,,,,,
acc,1778674693.0,492.0,-3.9293198704810957,0.1483767320101555,-9.812554171505695,,,,,,,,,,
acc,1778674693.0,492.0,-3.9499822927329244,0.1478448359348736,-9.811417784722828,,,,,,,,,,
acc,1778674693.0,492.0,-3.970811923143666,0.14660783925395302,-9.810291724505408,,,,,,,,,,
acc,1778674693.0,492.0,-3.9928366352415336,0.14609201742085529,-9.809175897012834,,,,,,,,,,
acc,1778674693.0,492.0,-4.013986765015181,0.14487094896206082,-9.807715246802378,,,,,,,,,,
acc,1778674693.0,492.0,-4.034234774664791,0.14472587299873943,-9.805557926737821,,,,,,,,,,
acc,1778674693.0,492.0,-4.053943815313485,0.14561152640818256,-9.804875582056631,,,,,,,,,,
acc,1778674693.0,492.0,-4.073473756210034,0.14684409413742816,-9.804199437969649,,,,,,,,,,
acc,1778674693.0,492.0,-4.092826224885175,0.1487399007711823,-9.803138972212967,,,,,,,,,,
acc,1778674693.0,492.0,-4.112357805561938,0.14887913504095013,-9.802123637527899,,,,,,,,,,
acc,1778674693.0,492.0,-4.1313569276793345,0.14869763609992995,-9.80143699734022,,,,,,,,,,
acc,1778674693.0,492.0,-4.149828429814147,0.14851778647321853,-9.800082166451983,,,,,,,,,,
acc,1778674693.0,492.0,-4.16848704947164,0.1479846088107391,-9.798739647160446,,,,,,,,,,
acc,1778674693.0,492.0,-4.187331086285328,0.1484856779553652,-9.797018861730226,,,,,,,,,,
acc,1778674693.0,492.0,-4.204619510789776,0.14795279209959142,-9.797053048853469,,,,,,,,,,
acc,1778674693.0,492.0,-4.222105794583774,0.14742474867400102,-9.797406402314545,,,,,,,,,,
acc,1778674693.0,492.0,-4.239752645273091,0.146901503674142,-9.797401573381084,,,,,,,,,,
acc,1778674694.0,493.0,-4.258304040971878,0.14673797580638112,-9.797787254140749,,,,,,,,,,
acc,1778674694.0,493.0,-4.276686856824277,0.14725037322243176,-9.797175522985079,,,,,,,,,,
acc,1778674694.0,493.0,-4.293837719709802,0.14672871284163616,-9.79717279208734,,,,,,,,,,
acc,1778674694.0,493.0,-4.3108327296659334,0.14656675516341486,-9.79791551406826,,,,,,,,,,
acc,1778674694.0,493.0,-4.328383245688427,0.14640626922319153,-9.797906058760317,,,,,,,,,,
acc,1778674694.0,493.0,-4.345774277087489,0.14553730803169185,-9.798606622989638,,,,,,,,,,
acc,1778674694.0,493.0,-4.362652301797578,0.1443212809874945,-9.7989813532221,,,,,,,,,,
acc,1778674694.0,493.0,-4.379376952953987,0.14244186502027256,-9.798997706882002,,,,,,,,,,
acc,1778674694.0,493.0,-4.397014520100846,0.14089899546395218,-9.79936888325839,,,,,,,,,,
acc,1778674694.0,493.0,-4.41516625076324,0.1404350510930511,-9.800091648920294,,,,,,,,,,
acc,1778674694.0,493.0,-4.432833565702791,0.13926538913502884,-9.800807846686006,,,,,,,,,,
acc,1778674694.0,493.0,-4.449630401202919,0.13743191698663335,-9.801482041835698,,,,,,,,,,
acc,1778674694.0,493.0,-4.466629563188778,0.13561510591350118,-9.80254057615407,,,,,,,,,,
acc,1778674694.0,493.0,-4.484503661254159,0.13413427230754799,-9.802524586624141,,,,,,,,,,
acc,1778674694.0,493.0,-4.502215334352207,0.13025312150204685,-9.804248086202172,,,,,,,,,,
acc,1778674694.0,493.0,-4.519766058476547,0.12640723937136228,-9.805245981508959,,,,,,,,,,
acc,1778674694.0,493.0,-4.536802324945907,0.12501007910560843,-9.805879846597858,,,,,,,,,,
acc,1778674694.0,493.0,-4.552299416637492,0.1222412426252624,-9.806188483879852,,,,,,,,,,
acc,1778674694.0,493.0,-4.568010645818294,0.11949756702636477,-9.805784383115197,,,,,,,,,,
acc,1778674694.0,493.0,-4.584963476823086,0.11748876614733128,-9.805738916635121,,,,,,,,,,
acc,1778674694.0,493.0,-4.601087815644733,0.1158531817231197,-9.805693863316526,,,,,,,,,,
acc,1778674694.0,493.0,-4.616355696554468,0.11700120479979943,-9.804655312691596,,,,,,,,,,
acc,1778674694.0,493.0,-4.631484835702104,0.11884871986693295,-9.804975077463215,,,,,,,,,,
acc,1778674694.0,493.0,-4.646121531738018,0.11823017850708886,-9.804936965265798,,,,,,,,,,
acc,1778674694.0,493.0,-4.661690117155773,0.1186466589876377,-9.805218676212975,,,,,,,,,,
acc,1778674694.0,493.0,-4.6767622570817995,0.1187398871217209,-9.805178350399407,,,,,,,,,,
acc,1778674694.0,493.0,-4.691697434006052,0.11986167818082727,-9.803789522301471,,,,,,,,,,
acc,1778674694.0,493.0,-4.706496892540741,0.12235763844293712,-9.804117154608607,,,,,,,,,,
acc,1778674694.0,493.0,-4.720451941796215,0.12483091750804855,-9.8036963729096,,,,,,,,,,
acc,1778674694.0,493.0,-4.734280179254904,0.1269267593950313,-9.80264047952535,,,,,,,,,,
acc,1778674694.0,493.0,-4.748337719366568,0.12797415507877136,-9.803298021028676,,,,,,,,,,
acc,1778674694.0,493.0,-4.7626224784214015,0.12936699498754098,-9.8022457475597,,,,,,,,,,
acc,1778674694.0,493.0,-4.776422467498583,0.13003724470253927,-9.80184197163554,,,,,,,,,,
acc,1778674694.0,493.0,-4.790806987082334,0.1317662990409815,-9.80080292953133,,,,,,,,,,
acc,1778674694.0,493.0,-4.805380259907088,0.1317403070885328,-9.79870842500771,,,,,,,,,,
acc,1778674694.0,493.0,-4.818081769002608,0.13135958927197475,-9.799792163142829,,,,,,,,,,
acc,1778674694.0,493.0,-4.829638456606175,0.1320117319542394,-9.798771747991207,,,,,,,,,,
acc,1778674694.0,493.0,-4.842474498727815,0.13230297737821,-9.798399540833614,,,,,,,,,,
acc,1778674694.0,493.0,-4.85448395544146,0.13433091929356025,-9.798776152626553,,,,,,,,,,
acc,1778674694.0,493.0,-4.865354879510274,0.13321672706961835,-9.797764970151954,,,,,,,,,,
acc,1778674694.0,493.0,-4.876481988896326,0.13143822092012097,-9.797437415218148,,,,,,,,,,
acc,1778674694.0,493.0,-4.888182414157782,0.12999534397833665,-9.796473892455735,,,,,,,,,,
acc,1778674694.0,493.0,-4.900131486927391,0.12856557868594906,-9.795519125376,,,,,,,,,,
acc,1778674694.0,493.0,-4.911617005494409,0.12714880589484023,-9.794182578011338,,,,,,,,,,
acc,1778674694.0,493.0,-4.921968752612602,0.12645484065506124,-9.792858176061577,,,,,,,,,,
acc,1778674694.0,493.0,-4.931871469779712,0.12438281884294555,-9.789806466232156,,,,,,,,,,
acc,1778674694.0,493.0,-4.943068562140118,0.12300405544356181,-9.788521830670991,,,,,,,,,,
acc,1778674694.0,493.0,-4.955228808960698,0.12373212596803607,-9.786574430085704,,,,,,,,,,
acc,1778674694.0,493.0,-4.966568620651347,0.12480855148709703,-9.785709620910216,,,,,,,,,,
acc,1778674694.0,493.0,-4.9757110808799805,0.1283244621924497,-9.78520764146982,,,,,,,,,,
acc,1778674694.0,493.0,-4.985480395226071,0.12935915647011162,-9.78396479614715,,,,,,,,,,
acc,1778674694.0,493.0,-4.997610201084114,0.12967450617657206,-9.783762645413336,,,,,,,,,,
acc,1778674694.0,493.0,-5.011014153249622,0.13034196132031456,-9.784627226685783,,,,,,,,,,
acc,1778674694.0,493.0,-5.023266901003874,0.13171328423916626,-9.785803418972788,,,,,,,,,,
acc,1778674694.0,493.0,-5.034343411152372,0.13271718376251124,-9.785300587203105,,,,,,,,,,
acc,1778674694.0,493.0,-5.044964296301204,0.13335698963982293,-9.786825631600188,,,,,,,,,,
acc,1778674694.0,493.0,-5.056198600865578,0.13434595255735632,-9.787626884665245,,,,,,,,,,
acc,1778674694.0,493.0,-5.06907015120375,0.13358658591914593,-9.788811322050895,,,,,,,,,,
acc,1778674694.0,493.0,-5.08253466881226,0.13354405276797296,-9.791049891240494,,,,,,,,,,
acc,1778674694.0,493.0,-5.094811937347383,0.13314694416552558,-9.792203223255239,,,,,,,,,,
acc,1778674694.0,493.0,-5.105238306919291,0.13168854011537864,-9.792281170733277,,,,,,,,,,
acc,1778674694.0,493.0,-5.116279854392244,0.13130829282766363,-9.792358409890783,,,,,,,,,,
acc,1778674694.0,493.0,-5.128250475291631,0.13057652987065904,-9.793109385767735,,,,,,,,,,
acc,1778674694.0,493.0,-5.139437878755109,0.12949645461048148,-9.792824136872591,,,,,,,,,,
acc,1778674694.0,493.0,-5.149813687629602,0.1266868515695669,-9.792541480077134,,,,,,,,,,
acc,1778674694.0,493.0,-5.1611246104912984,0.12322835031548016,-9.791622447617021,,,,,,,,,,
acc,1778674694.0,493.0,-5.172332749298044,0.12083067749643568,-9.790356804608392,,,,,,,,,,
acc,1778674694.0,493.0,-5.18240963756029,0.11916472564024083,-9.788712197293117,,,,,,,,,,
acc,1778674694.0,493.0,-5.192749917558597,0.1178333800913422,-9.787473000162134,,,,,,,,,,
acc,1778674694.0,493.0,-5.203670672450171,0.11757903663061499,-9.787238969915396,,,,,,,,,,
acc,1778674694.0,493.0,-5.216231531313755,0.1176819663500695,-9.786013160229567,,,,,,,,,,
acc,1778674694.0,493.0,-5.227648838218817,0.11881337029287845,-9.78547291912545,,,,,,,,,,
acc,1778674694.0,493.0,-5.2361581570392755,0.1206444168351995,-9.784582625354885,,,,,,,,,,
acc,1778674694.0,493.0,-5.244590150414254,0.12348823393108316,-9.783735916190292,,,,,,,,,,
acc,1778674694.0,493.0,-5.254010424925421,0.1266611707513282,-9.78460074018738,,,,,,,,,,
acc,1778674694.0,493.0,-5.264729467446141,0.12874037980663844,-9.784392810583068,,,,,,,,,,
acc,1778674694.0,493.0,-5.273611771100663,0.1294163233497957,-9.78557113281023,,,,,,,,,,
acc,1778674694.0,493.0,-5.281703417963224,0.1300861244939847,-9.78507041195509,,,,,,,,,,
acc,1778674694.0,493.0,-5.29007650582522,0.13074983905621734,-9.78624257670705,,,,,,,,,,
acc,1778674694.0,493.0,-5.300112839506348,0.13176249333391016,-9.7849903270925,,,,,,,,,,
acc,1778674694.0,493.0,-5.309028571134805,0.13205600350227592,-9.784743353804538,,,,,,,,,,
acc,1778674694.0,493.0,-5.317863284197473,0.13131744609776771,-9.785563528661275,,,,,,,,,,
acc,1778674694.0,493.0,-5.326617714923503,0.1305856000729901,-9.785701811965865,,,,,,,,,,
acc,1778674694.0,493.0,-5.3349376309602325,0.13124477580923308,-9.787578181017144,,,,,,,,,,
acc,1778674694.0,493.0,-5.34424683745472,0.13051359015848274,-9.78705922185489,,,,,,,,,,
acc,1778674694.0,493.0,-5.354855821177805,0.12943408701158607,-9.787503390185734,,,,,,,,,,
acc,1778674694.0,493.0,-5.365723361398085,0.12768995498127342,-9.78723358034917,,,,,,,,,,
acc,1778674694.0,493.0,-5.375072280984121,0.12525173928017355,-9.786007819777065,,,,,,,,,,
acc,1778674694.0,493.0,-5.382951883330894,0.12212574715169201,-9.784083265020717,,,,,,,,,,
acc,1778674694.0,493.0,-5.392499215781556,0.11799876101533265,-9.782495666483054,,,,,,,,,,
acc,1778674694.0,493.0,-5.40543845661215,0.11493867775252757,-9.781632427526608,,,,,,,,,,
acc,1778674694.0,493.0,-5.416875745370922,0.1129713057127035,-9.783545775560496,,,,,,,,,,
acc,1778674694.0,493.0,-5.424375473604068,0.11169624084617126,-9.784021871053593,,,,,,,,,,
acc,1778674694.0,493.0,-5.43354638388041,0.11114269551020027,-9.783180257645414,,,,,,,,,,
acc,1778674694.0,493.0,-5.443698851460709,0.11162358064878533,-9.784724569343515,,,,,,,,,,
acc,1778674694.0,493.0,-5.4520197289489225,0.11351996156184098,-9.782456704778376,,,,,,,,,,
acc,1778674694.0,493.0,-5.459910022463688,0.11607354823776744,-9.783688123990324,,,,,,,,,,
acc,1778674694.0,493.0,-5.469112987003552,0.11650962602004131,-9.78174914526684,,,,,,,,,,
acc,1778674694.0,493.0,-5.477202922565213,0.11729671205080273,-9.781531625076253,,,,,,,,,,
acc,1778674694.0,493.0,-5.484509410902642,0.11981597883067681,-9.779967213726929,,,,,,,,,,
acc,1778674694.0,493.0,-5.492104465985322,0.1188336864578128,-9.777707085602287,,,,,,,,,,
acc,1778674694.0,493.0,-5.500659913087697,0.11857025312154759,-9.776212922760537,,,,,,,,,,
acc,1778674694.0,493.0,-5.509492577465597,0.11898364298756875,-9.775087308536028,,,,,,,,,,
acc,1778674694.0,493.0,-5.5161506832111575,0.11939327632032073,-9.774326884785552,,,,,,,,,,
acc,1778674694.0,493.0,-5.522393314850281,0.11912475791612087,-9.772153505525177,,,,,,,,,,
acc,1778674694.0,493.0,-5.528934189737363,0.11953310891440591,-9.770674314499024,,,,,,,,,,
acc,1778674694.0,493.0,-5.5347056848778635,0.1210026528958785,-9.768889097610964,,,,,,,,,,
acc,1778674694.0,493.0,-5.540424733613111,0.12348824318864725,-9.76779454166404,,,,,,,,,,
acc,1778674694.0,493.0,-5.547866649034444,0.12492184630119121,-9.76529006653678,,,,,,,,,,
acc,1778674694.0,493.0,-5.5552409387031005,0.12701686047034474,-9.764263709863325,,,,,,,,,,
acc,1778674694.0,493.0,-5.5590340476204325,0.13086766434766875,-9.763246679840046,,,,,,,,,,
acc,1778674694.0,493.0,-5.562792688013839,0.13223420961439322,-9.762238891714233,,,,,,,,,,
acc,1778674694.0,493.0,-5.5672271058772225,0.13532766991106868,-9.761559728979458,,,,,,,,,,
acc,1778674694.0,493.0,-5.572650627796906,0.1397773906660913,-9.76365548024249,,,,,,,,,,
acc,1778674694.0,493.0,-5.577705397923942,0.14280230500305466,-9.763602379722757,,,,,,,,,,
acc,1778674694.0,493.0,-5.583743643958539,0.14473483690643954,-9.761845923097345,,,,,,,,,,
acc,1778674694.0,493.0,-5.587277744740795,0.14459099805939793,-9.764294035491139,,,,,,,,,,
acc,1778674694.0,493.0,-5.590105301337576,0.14547787561525186,-9.76423513233142,,,,,,,,,,
acc,1778674694.0,493.0,-5.596385829498479,0.1453272846728891,-9.764531735356021,,,,,,,,,,
acc,1778674694.0,493.0,-5.5998050489455915,0.14901169905658151,-9.764506175638077,,,,,,,,,,
acc,1778674694.0,493.0,-5.603548168379457,0.15266263264220598,-9.762422038654142,,,,,,,,,,
acc,1778674694.0,493.0,-5.609706539277168,0.1586941610317785,-9.759646907767493,,,,,,,,,,
acc,1778674694.0,493.0,-5.613714644298772,0.1632865089310568,-9.758636336942468,,,,,,,,,,
acc,1778674694.0,493.0,-5.616656926887858,0.1664527634694181,-9.75451124522781,,,,,,,,,,
acc,1778674694.0,493.0,-5.6219862438726595,0.1674959419312978,-9.749003773316021,,,,,,,,,,
acc,1778674694.0,493.0,-5.626592694219108,0.16608037518832838,-9.747025014484061,,,,,,,,,,
acc,1778674694.0,493.0,-5.630092390528605,0.16574256647024904,-9.741585571023414,,,,,,,,,,
acc,1778674694.0,493.0,-5.637748883222631,0.16331353270086596,-9.738289851323918,,,,,,,,,,
acc,1778674694.0,493.0,-5.645335800282311,0.16055160099312943,-9.73786381124798,,,,,,,,,,
acc,1778674695.0,494.0,-5.650049537372868,0.15990907119307876,-9.737086680834139,,,,,,,,,,
acc,1778674695.0,494.0,-5.656495276445989,0.15614867612202532,-9.73766547996573,,,,,,,,,,
acc,1778674695.0,494.0,-5.660788138343721,0.15068311937072376,-9.735470286355131,,,,,,,,,,
acc,1778674695.0,494.0,-5.664332057667568,0.14839093292123914,-9.734679411875781,,,,,,,,,,
acc,1778674695.0,494.0,-5.670648009446055,0.145409634078157,-9.733185782368691,,,,,,,,,,
acc,1778674695.0,494.0,-5.677935967460654,0.1428103976261076,-9.728617525136483,,,,,,,,,,
acc,1778674695.0,494.0,-5.68306340404667,0.14268404643376228,-9.731048121012128,,,,,,,,,,
acc,1778674695.0,494.0,-5.6867598758093445,0.1411389779650162,-9.73100735500753,,,,,,,,,,
acc,1778674695.0,494.0,-5.692517051926383,0.14344158645105268,-9.730966959449368,,,,,,,,,,
acc,1778674695.0,494.0,-5.6992513210320315,0.1446938706359453,-9.729862036434096,,,,,,,,,,
acc,1778674695.0,494.0,-5.704540023810936,0.14660921349268222,-9.731926352337737,,,,,,,,,,
acc,1778674695.0,494.0,-5.707686363614015,0.15060145514715287,-9.732871520615118,,,,,,,,,,
acc,1778674695.0,494.0,-5.712188483251868,0.15491238055363873,-9.734163061829596,,,,,,,,,,
acc,1778674695.0,494.0,-5.717359624208977,0.163372739532662,-9.738566570570747,,,,,,,,,,
acc,1778674695.0,494.0,-5.722483774280235,0.1731405800136109,-9.741936158209864,,,,,,,,,,
acc,1778674695.0,494.0,-5.7306850644096095,0.1814352967813708,-9.742470889449464,,,,,,,,,,
acc,1778674695.0,494.0,-5.738137389915492,0.1861759634677065,-9.746798903782226,,,,,,,,,,
acc,1778674695.0,494.0,-5.743782662226869,0.18877924728656326,-9.749064282891919,,,,,,,,,,
acc,1778674695.0,494.0,-5.751790406360519,0.1882351707867373,-9.749179278060922,,,,,,,,,,
acc,1778674695.0,494.0,-5.7611097540467515,0.18524677282223967,-9.749612695698628,,,,,,,,,,
acc,1778674695.0,494.0,-5.769315006274263,0.1843798346007349,-9.750432640068807,,,,,,,,,,
acc,1778674695.0,494.0,-5.779185038161666,0.18039707047309253,-9.750854668230646,,,,,,,,,,
acc,1778674695.0,494.0,-5.789994779830441,0.1757405655798389,-9.751627832258043,,,,,,,,,,
acc,1778674695.0,494.0,-5.800386824416254,0.17357564054667224,-9.750335161058892,,,,,,,,,,
acc,1778674695.0,494.0,-5.8085901312990345,0.17316972133370565,-9.75150350208682,,,,,,,,,,
acc,1778674695.0,494.0,-5.816008960883286,0.17134762536829823,-9.748082162601666,,,,,,,,,,
acc,1778674695.0,494.0,-5.821976003491357,0.16989705793663548,-9.749945415269158,,,,,,,,,,
acc,1778674695.0,494.0,-5.828243793638812,0.16359662622943782,-9.749023003326538,,,,,,,,,,
acc,1778674695.0,494.0,-5.832360323776604,0.15561411459635982,-9.747754002579299,,,,,,,,,,
acc,1778674695.0,494.0,-5.835374542843865,0.1494434739930801,-9.749300769832937,,,,,,,,,,
acc,1778674695.0,494.0,-5.836302571014377,0.1436838777549198,-9.74660937960094,,,,,,,,,,
acc,1778674695.0,494.0,-5.837896604392125,0.1403903909264111,-9.74887648088929,,,,,,,,,,
acc,1778674695.0,494.0,-5.841570456275391,0.13574246145455024,-9.749667620966521,,,,,,,,,,
acc,1778674695.0,494.0,-5.843471581447229,0.12801306453264027,-9.749493160440133,,,,,,,,,,
acc,1778674695.0,494.0,-5.843971068900908,0.1234776095523012,-9.751343591152335,,,,,,,,,,
acc,1778674695.0,494.0,-5.843756075667287,0.12072270169885692,-9.75040847380295,,,,,,,,,,
acc,1778674695.0,494.0,-5.842868606870058,0.12079706446302156,-9.75260555781783,,,,,,,,,,
acc,1778674695.0,494.0,-5.843373573635104,0.12711815911837032,-9.754463200099261,,,,,,,,,,
acc,1778674695.0,494.0,-5.8466426846244355,0.13338181310359043,-9.755594029040815,,,,,,,,,,
acc,1778674695.0,494.0,-5.8467583849358435,0.14342218488416647,-9.759802791429252,,,,,,,,,,
acc,1778674695.0,494.0,-5.846163101179223,0.15475568940845683,-9.761595031445921,,,,,,,,,,
acc,1778674695.0,494.0,-5.850826728697881,0.16634117567984433,-9.763725956012086,,,,,,,,,,
acc,1778674695.0,494.0,-5.858926651864805,0.17537210845459228,-9.766866916685567,,,,,,,,,,
acc,1778674695.0,494.0,-5.8676273991309715,0.18084231029223366,-9.770618278967229,,,,,,,,,,
acc,1778674695.0,494.0,-5.8748647104959355,0.18452347084932266,-9.771211848305967,,,,,,,,,,
acc,1778674695.0,494.0,-5.878557589820427,0.18817118018707923,-9.771090082031353,,,,,,,,,,
acc,1778674695.0,494.0,-5.877673342296133,0.18518336383211575,-9.768946116403209,,,,,,,,,,
acc,1778674695.0,494.0,-5.875057797264873,0.17874402351875376,-9.762952502470352,,,,,,,,,,
acc,1778674695.0,494.0,-5.872466020055816,0.1730731401518156,-9.760527522362873,,,,,,,,,,
acc,1778674695.0,494.0,-5.87131766003877,0.16848318900014114,-9.752551600067916,,,,,,,,,,
acc,1778674695.0,494.0,-5.867020537197448,0.16322501469902534,-9.749120736485633,,,,,,,,,,
acc,1778674695.0,494.0,-5.863472386496925,0.16117382028852897,-9.74163893449009,,,,,,,,,,
acc,1778674695.0,494.0,-5.860666420096494,0.15530762893048403,-9.735538493845231,,,,,,,,,,
acc,1778674695.0,494.0,-5.863103950232835,0.1491397735900336,-9.728783565168174,,,,,,,,,,
acc,1778674695.0,494.0,-5.864809397521486,0.14405737559940862,-9.72698855036188,,,,,,,,,,
acc,1778674695.0,494.0,-5.865114985279465,0.13973109473798098,-9.727268647308344,,,,,,,,,,
acc,1778674695.0,494.0,-5.867831558112202,0.13441472729196088,-9.725132436981651,,,,,,,,,,
acc,1778674695.0,494.0,-5.871233386826872,0.12879169953790418,-9.72865959660678,,,,,,,,,,
acc,1778674695.0,494.0,-5.872864960795527,0.12321976901913374,-9.732509675320077,,,,,,,,,,
acc,1778674695.0,494.0,-5.87586607940047,0.12082217515029131,-9.732775104489,,,,,,,,,,
acc,1778674695.0,494.0,-5.8791948973010095,0.11947576864726916,-9.735132425308882,,,,,,,,,,
acc,1778674695.0,494.0,-5.882493465770538,0.11675722615390555,-9.737503819188364,,,,,,,,,,
acc,1778674695.0,494.0,-5.885407088812903,0.11686762374003044,-9.738433798548282,,,,,,,,,,
acc,1778674695.0,494.0,-5.892127871755782,0.12184005462028945,-9.74627716373755,,,,,,,,,,
acc,1778674695.0,494.0,-5.903331151070801,0.13060094581223108,-9.748511789472145,,,,,,,,,,
acc,1778674695.0,494.0,-5.91581699559911,0.13718792193489232,-9.754950201394468,,,,,,,,,,
acc,1778674695.0,494.0,-5.925385143227054,0.14371504129059698,-9.76409884850877,,,,,,,,,,
acc,1778674695.0,494.0,-5.9289738981137425,0.14389993691429373,-9.7658520496132,,,,,,,,,,
acc,1778674695.0,494.0,-5.929370843405755,0.13783574492717013,-9.76755382477436,,,,,,,,,,
acc,1778674695.0,494.0,-5.93430775064364,0.12728309005171373,-9.764341595750468,,,,,,,,,,
acc,1778674695.0,494.0,-5.938489862857709,0.11892063224192224,-9.761513527572406,,,,,,,,,,
acc,1778674695.0,494.0,-5.942314504211552,0.11865640887005881,-9.764319621927909,,,,,,,,,,
acc,1778674695.0,494.0,-5.943300154234313,0.12290266120433944,-9.76674525512745,,,,,,,,,,
acc,1778674695.0,494.0,-5.948110483887453,0.1257259562939035,-9.774011882716964,,,,,,,,,,
acc,1778674695.0,494.0,-5.952167168747233,0.12468995934301401,-9.783697246308453,,,,,,,,,,
acc,1778674695.0,494.0,-5.957251893482432,0.1229889383414005,-9.789460961293734,,,,,,,,,,
acc,1778674695.0,494.0,-5.962645374404868,0.12059344209408991,-9.794817329728199,,,,,,,,,,
acc,1778674695.0,494.0,-5.963446275000485,0.12066897945520792,-9.800125024099854,,,,,,,,,,
acc,1778674695.0,494.0,-5.9645948685741805,0.11793959412475061,-9.80187032687223,,,,,,,,,,
acc,1778674695.0,494.0,-5.967827319244911,0.11385064922924507,-9.804309693407307,,,,,,,,,,
acc,1778674695.0,494.0,-5.969610530872912,0.11292256483666109,-9.806726893080503,,,,,,,,,,
acc,1778674695.0,494.0,-5.9724424417391155,0.11026357224997815,-9.809867563430675,,,,,,,,,,
acc,1778674695.0,494.0,-5.973509285901321,0.11007801677888955,-9.81432856157849,,,,,,,,,,
acc,1778674695.0,494.0,-5.975595835582801,0.11127851842788314,-9.8183585567851,,,,,,,,,,
acc,1778674695.0,494.0,-5.977663424498196,0.11385247281591396,-9.823771796178866,,,,,,,,,,
acc,1778674695.0,494.0,-5.979712224946647,0.11572859902917344,-9.825337711824053,,,,,,,,,,
acc,1778674695.0,494.0,-5.983481740395103,0.11339907850136369,-9.826534426905653,,,,,,,,,,
acc,1778674695.0,494.0,-5.985122698130951,0.11353999203669722,-9.82874966734927,,,,,,,,,,
acc,1778674695.0,494.0,-5.989907951384285,0.11399909249394174,-9.827821073916505,,,,,,,,,,
acc,1778674695.0,494.0,-5.991490513252508,0.11516396278298047,-9.826936422188927,,,,,,,,,,
acc,1778674695.0,494.0,-5.989580028702172,0.11319454405797841,-9.823894517092011,,,,,,,,,,
acc,1778674695.0,494.0,-5.9880418667726,0.10843878546101747,-9.818856939330441,,,,,,,,,,
acc,1778674695.0,494.0,-5.988611985931647,0.10095750121051277,-9.814823550088821,,,,,,,,,,
acc,1778674695.0,494.0,-5.990561295283477,0.09528353315297237,-9.816825741456972,,,,,,,,,,
acc,1778674695.0,494.0,-5.9911085200475425,0.09211039969452559,-9.816999417186889,,,,,,,,,,
acc,1778674695.0,494.0,-5.995129446642851,0.09450357562469447,-9.81898183614868,,,,,,,,,,
acc,1778674695.0,494.0,-5.998758863652279,0.0962005661430853,-9.82261458459824,,,,,,,,,,
acc,1778674695.0,494.0,-6.002710270516326,0.09681723235317712,-9.825220416048,,,,,,,,,,
acc,1778674695.0,494.0,-6.006980732181377,0.09639889475984771,-9.829896871539175,,,,,,,,,,
acc,1778674695.0,494.0,-6.0101829874986095,0.08831708603009789,-9.831371633408232,,,,,,,,,,
acc,1778674695.0,494.0,-6.012646210828296,0.07963427952470828,-9.830738690321567,,,,,,,,,,
acc,1778674695.0,494.0,-6.0137026795672615,0.07379911676234005,-9.830430966297074,,,,,,,,,,
acc,1778674695.0,494.0,-6.017873251687996,0.07256054789020791,-9.82980657118271,,,,,,,,,,
acc,1778674695.0,494.0,-6.02165096346179,0.07410197594160016,-9.832347048051888,,,,,,,,,,
acc,1778674695.0,494.0,-6.0267787175840954,0.073535093235932,-9.835893839326065,,,,,,,,,,
acc,1778674695.0,494.0,-6.030120533290123,0.07055959086518836,-9.840437809573837,,,,,,,,,,
acc,1778674695.0,494.0,-6.036591188556927,0.06864052736483847,-9.844975982496251,,,,,,,,,,
acc,1778674695.0,494.0,-6.041263702280487,0.0649995699429137,-9.846313718399903,,,,,,,,,,
acc,1778674695.0,494.0,-6.042060119925478,0.062101631052707315,-9.850408030896872,,,,,,,,,,
acc,1778674695.0,494.0,-6.0438787095681,0.06302815898502953,-9.847507797860214,,,,,,,,,,
acc,1778674695.0,494.0,-6.047775067930581,0.06465620916477746,-9.844988881422383,,,,,,,,,,
acc,1778674695.0,494.0,-6.0488317833167935,0.06279079051141374,-9.844942129175484,,,,,,,,,,
acc,1778674695.0,494.0,-6.050233867051397,0.059557952241366605,-9.840423221551744,,,,,,,,,,
acc,1778674695.0,494.0,-6.05233314250428,0.05599952943959929,-9.84073742550499,,,,,,,,,,
acc,1778674695.0,494.0,-6.053703408904252,0.050734100717785474,-9.84214917211771,,,,,,,,,,
acc,1778674695.0,494.0,-6.056481088797083,0.04654592882722945,-9.8403888919887,,,,,,,,,,
acc,1778674695.0,494.0,-6.057458691369617,0.04449010992457364,-9.843862605903263,,,,,,,,,,
acc,1778674695.0,494.0,-6.058107942913547,0.04664157968765816,-9.840702384634735,,,,,,,,,,
acc,1778674695.0,494.0,-6.056657000129121,0.04980289881240851,-9.836470482860701,,,,,,,,,,
acc,1778674695.0,494.0,-6.059727307746601,0.052261052308360756,-9.83405186403328,,,,,,,,,,
acc,1778674695.0,494.0,-6.0613853532113735,0.053631973799332794,-9.833359061878284,,,,,,,,,,
acc,1778674695.0,494.0,-6.06441269363075,0.052896133962180084,-9.831323687829856,,,,,,,,,,
acc,1778674695.0,494.0,-6.064288820551516,0.05113758073980592,-9.831401113081123,,,,,,,,,,
acc,1778674695.0,494.0,-6.065195473187247,0.049395007733478956,-9.828354131121293,,,,,,,,,,
acc,1778674695.0,494.0,-6.068543161384502,0.04766826972875537,-9.828458541143684,,,,,,,,,,
acc,1778674695.0,494.0,-6.069766125103913,0.045957222830775524,-9.82579326052098,,,,,,,,,,
acc,1778674695.0,494.0,-6.070303537299297,0.04635602802453517,-9.823116705310973,,,,,,,,,,
acc,1778674696.0,495.0,-6.071865475105061,0.043627505586624836,-9.821174404971849,,,,,,,,,,
acc,1778674696.0,495.0,-6.072703277635284,0.042308148536227094,-9.822018487351631,,,,,,,,,,
acc,1778674696.0,495.0,-6.072504066876664,0.03926143887315496,-9.818311330518684,,,,,,,,,,
acc,1778674696.0,495.0,-6.0726616372390385,0.04039551877424055,-9.820281827919464,,,,,,,,,,
acc,1778674696.0,495.0,-6.074202146664067,0.040489893073619006,-9.815987011876908,,,,,,,,,,
acc,1778674696.0,495.0,-6.075728657267252,0.0398734771375394,-9.813790032629477,,,,,,,,,,
acc,1778674696.0,495.0,-6.075856925332189,0.04032756616625003,-9.815056188682574,,,,,,,,,,
acc,1778674696.0,495.0,-6.077723360510686,0.040067596182425474,-9.809708460878825,,,,,,,,,,
acc,1778674696.0,495.0,-6.077123569789587,0.03980998858173315,-9.809627335811381,,,,,,,,,,
acc,1778674696.0,495.0,-6.079688427437018,0.040619616317087194,-9.80507437683429,,,,,,,,,,
acc,1778674696.0,495.0,-6.081520045226585,0.03968255415142726,-9.80641973325168,,,,,,,,,,
acc,1778674696.0,495.0,-6.083689980630014,0.03733414191457493,-9.805339093246056,,,,,,,,,,
acc,1778674696.0,495.0,-6.081296628621671,0.0384857354264405,-9.807427471150751,,,,,,,,,,
acc,1778674696.0,495.0,-6.084498003387823,0.039626864249118425,-9.802504037426012,,,,,,,,,,
acc,1778674696.0,495.0,-6.084191612331336,0.04146756520560912,-9.806641483630097,,,,,,,,,,
acc,1778674696.0,495.0,-6.084917405551259,0.04293656859408185,-9.803429030624184,,,,,,,,,,
acc,1778674696.0,495.0,-6.083577803271241,0.04439222294603265,-9.803369473244683,,,,,,,,,,
acc,1778674696.0,495.0,-6.082250374142006,0.040971613244426844,-9.801251647867774,,,,,,,,,,
acc,1778674696.0,495.0,-6.080225074903215,0.037227116231021776,-9.80156684752965,,,,,,,,,,
acc,1778674696.0,495.0,-6.079957512536995,0.03596592040584082,-9.798755479307848,,,,,,,,,,
acc,1778674696.0,495.0,-6.079337419769999,0.03471618524114972,-9.800903683416427,,,,,,,,,,
acc,1778674696.0,495.0,-6.080817265433826,0.03521713929063418,-9.795684561393292,,,,,,,,,,
acc,1778674696.0,495.0,-6.080544321750793,0.034648637596895085,-9.79952901533287,,,,,,,,,,
acc,1778674696.0,495.0,-6.081658229265627,0.03444027282035434,-9.796416688671409,,,,,,,,,,
acc,1778674696.0,495.0,-6.08066771098798,0.03494373412376955,-9.795462442073168,,,,,,,,,,
acc,1778674696.0,495.0,-6.082845391664423,0.035442620404862235,-9.79235157456408,,,,,,,,,,
acc,1778674696.0,495.0,-6.08358341817563,0.03661140243037973,-9.791789239081893,,,,,,,,,,
acc,1778674696.0,495.0,-6.085024679865393,0.03500083081942098,-9.791196510172448,,,,,,,,,,
acc,1778674696.0,495.0,-6.083329140995237,0.03411482733489526,-9.788834340415868,,,,,,,,,,
acc,1778674696.0,495.0,-6.084772713336329,0.033556342502431835,-9.786884101245453,,,,,,,,,,
acc,1778674696.0,495.0,-6.085173758593349,0.034067836201965934,-9.789495153062196,,,,,,,,,,
acc,1778674696.0,495.0,-6.086955530416015,0.03350977838456898,-9.786083540270042,,,,,,,,,,
acc,1778674696.0,495.0,-6.086626807473746,0.03263732429949536,-9.78795643989411,,,,,,,,,,
acc,1778674696.0,495.0,-6.087011004321698,0.029323532990527885,-9.787043578383338,,,,,,,,,,
acc,1778674696.0,495.0,-6.086681777280498,0.027069254615588408,-9.789262715784396,,,,,,,,,,
acc,1778674696.0,495.0,-6.08532614191562,0.03005346834983711,-9.790041822299214,,,,,,,,,,
acc,1778674696.0,495.0,-6.085367196314512,0.031626193204064935,-9.791204314189029,,,,,,,,,,
acc,1778674696.0,495.0,-6.082603641450126,0.03318462649064282,-9.791291338852476,,,,,,,,,,
acc,1778674696.0,495.0,-6.080575132028937,0.032989565385198996,-9.791732543573886,,,,,,,,,,
acc,1778674696.0,495.0,-6.077855123313669,0.03315123860281805,-9.790820862449605,,,,,,,,,,
acc,1778674696.0,495.0,-6.076224735194528,0.03469581359114342,-9.78704224098189,,,,,,,,,,
acc,1778674696.0,495.0,-6.074964124412865,0.03381258184178233,-9.787131592617806,,,,,,,,,,
acc,1778674696.0,495.0,-6.0750993398924,0.03187247263954715,-9.783138017358946,,,,,,,,,,
acc,1778674696.0,495.0,-6.074168423148779,0.02821066078440792,-9.781204038017334,,,,,,,,,,
acc,1778674696.0,495.0,-6.072926498358429,0.02738636051239439,-9.77861320382145,,,,,,,,,,
acc,1778674696.0,495.0,-6.069956526417544,0.027598950824539902,-9.775690942030366,,,,,,,,,,
acc,1778674696.0,495.0,-6.066658572158454,0.0285195419375485,-9.776593377122023,,,,,,,,,,
acc,1778674696.0,495.0,-6.062680654226177,0.0287218348739181,-9.772979537136814,,,,,,,,,,
acc,1778674696.0,495.0,-6.0594488168208,0.027182956854710064,-9.770427945754541,,,,,,,,,,
acc,1778674696.0,495.0,-6.0545070148759255,0.026367995470345525,-9.771023244642647,,,,,,,,,,
acc,1778674696.0,495.0,-6.048225748850701,0.026944810668397195,-9.76678559202903,,,,,,,,,,
acc,1778674696.0,495.0,-6.044060370749501,0.027516384267219467,-9.768123913037936,,,,,,,,,,
acc,1778674696.0,495.0,-6.0392584057355885,0.022509785875138764,-9.76394810141101,,,,,,,,,,
acc,1778674696.0,495.0,-6.033435182426606,0.019288024910890045,-9.764602283537114,,,,,,,,,,
acc,1778674696.0,495.0,-6.028374799101241,0.017124940585634654,-9.760777940858636,,,,,,,,,,
acc,1778674696.0,495.0,-6.023360400176766,0.02335871763053063,-9.761105959807871,,,,,,,,,,
acc,1778674696.0,495.0,-6.020485871339339,0.03021028576158346,-9.759052721395886,,,,,,,,,,
acc,1778674696.0,495.0,-6.017992434604066,0.0373545545237303,-9.762236148202199,,,,,,,,,,
acc,1778674696.0,495.0,-6.015166685209813,0.03992582781095319,-9.75846880128298,,,,,,,,,,
acc,1778674696.0,495.0,-6.009242910185152,0.035516404823727615,-9.757149459731787,,,,,,,,,,
acc,1778674696.0,495.0,-6.001598138270861,0.027632882044265332,-9.75371230930704,,,,,,,,,,
acc,1778674696.0,495.0,-5.994732768090039,0.020530930560292652,-9.751016325379295,,,,,,,,,,
acc,1778674696.0,495.0,-5.9896691171638405,0.016972180867321808,-9.745221136625242,,,,,,,,,,
acc,1778674696.0,495.0,-5.983977042054464,0.014155702660529403,-9.742602313153814,,,,,,,,,,
acc,1778674696.0,495.0,-5.979366091668233,0.014133560007784603,-9.741746629068556,,,,,,,,,,
acc,1778674696.0,495.0,-5.97341267979677,0.013756647706272426,-9.74437738608061,,,,,,,,,,
acc,1778674696.0,495.0,-5.968897729226382,0.014803025732827789,-9.744250998660362,,,,,,,,,,
acc,1778674696.0,495.0,-5.963713883084297,0.012006258938438097,-9.744764694569719,,,,,,,,,,
acc,1778674696.0,495.0,-5.960316475955224,0.010974248525160662,-9.745983655090455,,,,,,,,,,
acc,1778674696.0,495.0,-5.95556557061933,0.009951616132746198,-9.744067835146767,,,,,,,,,,
acc,1778674696.0,495.0,-5.951922740913785,0.012416941918598977,-9.745257633764838,,,,,,,,,,
acc,1778674696.0,495.0,-5.948313014103836,0.013475494035805235,-9.74647211487894,,,,,,,,,,
acc,1778674696.0,495.0,-5.945055556793633,0.011365228982482416,-9.749414892523921,,,,,,,,,,
acc,1778674696.0,495.0,-5.940088367758922,0.008954672783820776,-9.750201139920044,,,,,,,,,,
acc,1778674696.0,495.0,-5.934846839753701,0.008305354329454456,-9.748956927748036,,,,,,,,,,
acc,1778674696.0,495.0,-5.928588047824547,0.009401269009157857,-9.751912629002783,,,,,,,,,,
acc,1778674696.0,495.0,-5.9234510248113965,0.010132263186447683,-9.751362796930405,,,,,,,,,,
acc,1778674696.0,495.0,-5.918005720859637,0.008762311169540753,-9.751456905174232,,,,,,,,,,
acc,1778674696.0,495.0,-5.911544995637093,0.004636075356915228,-9.753679956152753,,,,,,,,,,
acc,1778674696.0,495.0,-5.904468541638634,0.0026061353196805306,-9.754462940687917,,,,,,,,,,
acc,1778674696.0,495.0,-5.898485801490878,0.0030439069508835267,-9.757013637181988,,,,,,,,,,
acc,1778674696.0,495.0,-5.892202456465573,0.0034777004909471213,-9.758831222509224,,,,,,,,,,
acc,1778674696.0,495.0,-5.885621247287814,0.0018132485405987268,-9.758573491086555,,,,,,,,,,
acc,1778674696.0,495.0,-5.879099842464749,-0.0036697054539320648,-9.761406301857017,,,,,,,,,,
acc,1778674696.0,495.0,-5.872992660320474,-0.0049142370801092666,-9.761764105162632,,,,,,,,,,
acc,1778674696.0,495.0,-5.866586013207401,-0.005118059425294546,-9.76389349319421,,,,,,,,,,
acc,1778674696.0,495.0,-5.860947516815553,-0.0018413551483015297,-9.764903133325591,,,,,,,,,,
acc,1778674696.0,495.0,-5.855360258217373,-0.00100819769718584,-9.765229160441935,,,,,,,,,,
acc,1778674696.0,495.0,-5.850888666218425,-0.00018261126263196712,-9.766581624955395,,,,,,,,,,
acc,1778674696.0,495.0,-5.845747775556135,-0.0007488979577236145,-9.767957302884614,,,,,,,,,,
acc,1778674696.0,495.0,-5.842037971787545,-0.00028063867724574873,-9.77169875644115,,,,,,,,,,
acc,1778674696.0,495.0,-5.83733247946668,-0.0019109380811023963,-9.772672963430063,,,,,,,,,,
acc,1778674696.0,495.0,-5.832314775741385,-0.006295155466003426,-9.775413153799102,,,,,,,,,,
acc,1778674696.0,495.0,-5.82698770680686,-0.005776496579681031,-9.77706354018336,,,,,,,,,,
acc,1778674696.0,495.0,-5.822418978317547,-0.0024938089948834557,-9.781467671102382,,,,,,,,,,
acc,1778674696.0,495.0,-5.816826862996274,-0.0012997608318019156,-9.78373747752959,,,,,,,,,,
acc,1778674696.0,495.0,-5.811640534858866,-0.0008264957846455957,-9.787087055770247,,,,,,,,,,
acc,1778674696.0,495.0,-5.806146364738396,-0.001067463997896584,-9.789341292434777,,,,,,,,,,
acc,1778674696.0,495.0,-5.80105709176021,0.0025273937329098797,-9.793278882865794,,,,,,,,,,
acc,1778674696.0,495.0,-5.797078960116687,0.003995280949252304,-9.796790235735788,,,,,,,,,,
acc,1778674696.0,495.0,-5.793456454804892,0.005449829272217306,-9.80062464223271,,,,,,,,,,
acc,1778674696.0,495.0,-5.7891924294223625,0.0048323598145078965,-9.802720366624072,,,,,,,,,,
acc,1778674696.0,495.0,-5.783902248329042,0.0021261978401240396,-9.806891350425857,,,,,,,,,,
acc,1778674696.0,495.0,-5.777275778016221,0.000828998043528198,-9.810030526233426,,,,,,,,,,
acc,1778674696.0,495.0,-5.7720938851759795,-0.0001014430584714099,-9.8110113780114,,,,,,,,,,
acc,1778674696.0,495.0,-5.765219748224747,-0.0031177326604518016,-9.812302784068317,,,,,,,,,,
acc,1778674696.0,495.0,-5.757733639227581,-0.0068165454587182026,-9.811559149201205,,,,,,,,,,
acc,1778674696.0,495.0,-5.7509899958096815,-0.00977181400006801,-9.812135644950345,,,,,,,,,,
acc,1778674696.0,495.0,-5.745372527218128,-0.007837191328290903,-9.813807299859853,,,,,,,,,,
acc,1778674696.0,495.0,-5.737711810878557,-0.004180816154364171,-9.813333966304755,,,,,,,,,,
acc,1778674696.0,495.0,-5.730475670297871,0.00015226566998317176,-9.810451163036673,,,,,,,,,,
acc,1778674696.0,495.0,-5.722595352888208,0.003061601272158135,-9.809724354105036,,,,,,,,,,
acc,1778674696.0,495.0,-5.717555386829751,0.008713241162177766,-9.80896864633917,,,,,,,,,,
acc,1778674696.0,495.0,-5.712561219637197,0.012929152911331898,-9.810278614979778,,,,,,,,,,
acc,1778674696.0,495.0,-5.705873093358195,0.015367421405016433,-9.81232210675012,,,,,,,,,,
acc,1778674696.0,495.0,-5.698926275589994,0.016399162106496692,-9.809448498389653,,,,,,,,,,
acc,1778674696.0,495.0,-5.690622719241428,0.013232929233882085,-9.811144571769614,,,,,,,,,,
acc,1778674696.0,495.0,-5.682749589314476,0.013574133724447822,-9.808601131245927,,,,,,,,,,
acc,1778674696.0,495.0,-5.676012898012966,0.011143504909198455,-9.805725841542648,,,,,,,,,,
acc,1778674696.0,495.0,-5.67036683308968,0.008379992691691008,-9.80529044186538,,,,,,,,,,
acc,1778674696.0,495.0,-5.661293400280437,0.004257231067250003,-9.80244523685265,,,,,,,,,,
acc,1778674696.0,495.0,-5.654041751689306,0.002585695417872445,-9.802430113703156,,,,,,,,,,
acc,1778674696.0,495.0,-5.645826599778792,0.000929349243206923,-9.80035632788161,,,,,,,,,,
acc,1778674696.0,495.0,-5.636621196589204,-0.00035697462449252185,-9.796846018120252,,,,,,,,,,
acc,1778674696.0,495.0,-5.627854415027592,-0.004080874809152591,-9.793012645253304,,,,,,,,,,
acc,1778674696.0,495.0,-5.6205516693277975,-0.003582337396722278,-9.788965628079618,,,,,,,,,,
acc,1778674696.0,495.0,-5.6136702464581,0.000390344192705905,-9.787724128528609,,,,,,,,,,
acc,1778674696.0,495.0,-5.60685135602596,0.006776190796232907,-9.786138939793974,,,,,,,,,,
acc,1778674696.0,495.0,-5.600804362425476,0.01310400833200482,-9.783112796257813,,,,,,,,,,
acc,1778674697.0,496.0,-5.595131786102776,0.014475784393358752,-9.784338253154626,,,,,,,,,,
acc,1778674697.0,496.0,-5.589191289848586,0.013776294838910897,-9.782428870562057,,,,,,,,,,
acc,1778674697.0,496.0,-5.582594843067239,0.00960449627482702,-9.780181867931093,,,,,,,,,,
acc,1778674697.0,496.0,-5.5746739772837355,0.004405703923027056,-9.78001409330737,,,,,,,,,,
acc,1778674697.0,496.0,-5.563346415044153,0.0017034190320591013,-9.77810850150392,,,,,,,,,,
acc,1778674697.0,496.0,-5.54931755174345,0.00143946113471725,-9.777285129571569,,,,,,,,,,
acc,1778674697.0,496.0,-5.530908105239993,0.0011779018591483177,-9.77746314542219,,,,,,,,,,
acc,1778674697.0,496.0,-5.509187273458455,0.0026580520923357633,-9.775261267019737,,,,,,,,,,
acc,1778674697.0,496.0,-5.485924489183747,0.003095351947746333,-9.77378933002446,,,,,,,,,,
acc,1778674697.0,496.0,-5.459713889993825,0.0038836488601114174,-9.773360168772113,,,,,,,,,,
acc,1778674697.0,496.0,-5.431682670031791,0.004309811548879151,-9.772615439953304,,,,,,,,,,
acc,1778674697.0,496.0,-5.402486308357152,0.004377139864767061,-9.772835889916603,,,,,,,,,,
acc,1778674697.0,496.0,-5.372525857994064,0.005828218181429649,-9.772415392705854,,,,,,,,,,
acc,1778674697.0,496.0,-5.340388397052173,0.005881748527122484,-9.773383087520747,,,,,,,,,,
acc,1778674697.0,496.0,-5.307868535369807,0.006999686843740978,-9.773951532625805,,,,,,,,,,
acc,1778674697.0,496.0,-5.2749342535152115,0.009491837210401286,-9.771746070372867,,,,,,,,,,
acc,1778674697.0,496.0,-5.2409148791068025,0.009867037519196079,-9.770625552954858,,,,,,,,,,
acc,1778674697.0,496.0,-5.2044004072606755,0.007470095599315812,-9.767065943427877,,,,,,,,,,
acc,1778674697.0,496.0,-5.1658039764918255,0.006479305930259041,-9.764603584058584,,,,,,,,,,
acc,1778674697.0,496.0,-5.124079611439326,0.007911281574178385,-9.760424267804863,,,,,,,,,,
acc,1778674697.0,496.0,-5.0806400978951505,0.01213448083690951,-9.754188626029542,,,,,,,,,,
acc,1778674697.0,496.0,-5.035501021649905,0.019088045124968825,-9.749784475433009,,,,,,,,,,
acc,1778674697.0,496.0,-4.98938776858575,0.02530398314186043,-9.744355451551174,,,,,,,,,,
acc,1778674697.0,496.0,-4.9429836112820364,0.031108465212925877,-9.739650191144694,,,,,,,,,,
acc,1778674697.0,496.0,-4.89735610580829,0.03199716488052315,-9.731544517081488,,,,,,,,,,
acc,1778674697.0,496.0,-4.850403891078441,0.030073552633330662,-9.72351250039496,,,,,,,,,,
acc,1778674697.0,496.0,-4.8028489375425725,0.02749299132806566,-9.717576777487208,,,,,,,,,,
acc,1778674697.0,496.0,-4.75327684801491,0.024580909077958506,-9.711020564123585,,,,,,,,,,
acc,1778674697.0,496.0,-4.702060932436062,0.02272468936871724,-9.70353002228542,,,,,,,,,,
acc,1778674697.0,496.0,-4.64886114853179,0.021950240879067256,-9.69777588290855,,,,,,,,,,
acc,1778674697.0,496.0,-4.594085998294761,0.021502297323279962,-9.691399603001274,,,,,,,,,,
acc,1778674697.0,496.0,-4.537359322987913,0.021413395153125764,-9.684726294366918,,,,,,,,,,
acc,1778674697.0,496.0,-4.481858072514554,0.018911529891801917,-9.679143027055574,,,,,,,,,,
acc,1778674697.0,496.0,-4.42753559873619,0.018171732107517633,-9.674675399158666,,,,,,,,,,
acc,1778674697.0,496.0,-4.376156035163613,0.023686064151376838,-9.671348767067098,,,,,,,,,,
acc,1778674697.0,496.0,-4.326627726583918,0.033693855561310895,-9.673554335641649,,,,,,,,,,
acc,1778674697.0,496.0,-4.276165126744114,0.04187137210953923,-9.674036023587975,,,,,,,,,,
acc,1778674697.0,496.0,-4.225451145777843,0.04333670603427376,-9.677672541408437,,,,,,,,,,
acc,1778674697.0,496.0,-4.173813647919748,0.04478872426780829,-9.682624881152545,,,,,,,,,,
acc,1778674697.0,496.0,-4.120196121799741,0.044843176902650675,-9.6844085147116,,,,,,,,,,
acc,1778674697.0,496.0,-4.065681454615498,0.04280283117543669,-9.688625214551108,,,,,,,,,,
acc,1778674697.0,496.0,-4.011662169720414,0.042875329894307514,-9.692484120157534,,,,,,,,,,
acc,1778674697.0,496.0,-3.9588436981418313,0.043976569855504154,-9.698331274180758,,,,,,,,,,
acc,1778674697.0,496.0,-3.9057952626548413,0.045067802697497265,-9.704160788669968,,,,,,,,,,
acc,1778674697.0,496.0,-3.852199476472296,0.04409031926006441,-9.710611758745467,,,,,,,,,,
acc,1778674697.0,496.0,-3.798380799033332,0.04486105103182075,-9.718069011462596,,,,,,,,,,
acc,1778674697.0,496.0,-3.743311837559087,0.04420491378897345,-9.724074128188285,,,,,,,,,,
acc,1778674697.0,496.0,-3.6880333626880466,0.04529407163814847,-9.731089579086385,,,,,,,,,,
acc,1778674697.0,496.0,-3.6336121817924725,0.04431453206373142,-9.734882081664614,,,,,,,,,,
acc,1778674697.0,496.0,-3.5790110953886844,0.04192402843154344,-9.743822624937106,,,,,,,,,,
acc,1778674697.0,496.0,-3.5259355766253444,0.04200451295196994,-9.74884828803579,,,,,,,,,,
acc,1778674697.0,496.0,-3.4740522950454746,0.04453353141531478,-9.756277547558552,,,,,,,,,,
acc,1778674697.0,496.0,-3.4212206187224297,0.044590303022745366,-9.763994267237559,,,,,,,,,,
acc,1778674697.0,496.0,-3.3671296984361803,0.04326219691709073,-9.772350796656394,,,,,,,,,,
acc,1778674697.0,496.0,-3.3149501750611927,0.03985185595137861,-9.779885953060028,,,,,,,,,,
acc,1778674697.0,496.0,-3.2646291851105205,0.03576257258936657,-9.788062578181108,,,,,,,,,,
acc,1778674697.0,496.0,-3.2154398981134493,0.03554408533397346,-9.793786624586698,,,,,,,,,,
acc,1778674697.0,496.0,-3.1663781335284087,0.03845128709348054,-9.79874872315989,,,,,,,,,,
acc,1778674697.0,496.0,-3.1163423346866583,0.04832490488665067,-9.802955797825591,,,,,,,,,,
acc,1778674697.0,496.0,-3.0674711506746406,0.059493170663795725,-9.804000938633306,,,,,,,,,,
acc,1778674697.0,496.0,-3.0200734658906434,0.06882061618932764,-9.808124782246527,,,,,,,,,,
acc,1778674697.0,496.0,-2.9734614612569694,0.07075099125564431,-9.809442419194584,,,,,,,,,,
acc,1778674697.0,496.0,-2.9279829589634585,0.07092449205557896,-9.814262251405866,,,,,,,,,,
acc,1778674697.0,496.0,-2.8835921643582854,0.0707414453691249,-9.817334446815678,,,,,,,,,,
acc,1778674697.0,496.0,-2.8399597167910744,0.0698501294188163,-9.821017659589984,,,,,,,,,,
acc,1778674697.0,496.0,-2.7974336959185533,0.07038677824790487,-9.823992973315303,,,,,,,,,,
acc,1778674697.0,496.0,-2.7549391530810774,0.07230292138383088,-9.827225223008737,,,,,,,,,,
acc,1778674697.0,496.0,-2.7121208313726872,0.07384669048960202,-9.828404785980965,,,,,,,,,,
acc,1778674697.0,496.0,-2.6721408709673513,0.07292715674925906,-9.829928600962718,,,,,,,,,,
acc,1778674697.0,496.0,-2.63252421396849,0.06889227534783074,-9.833106912790205,,,,,,,,,,
acc,1778674697.0,496.0,-2.592557626353731,0.06315472678721659,-9.833132639269575,,,,,,,,,,
acc,1778674697.0,496.0,-2.5522797823507015,0.05853421961555171,-9.831809255420202,,,,,,,,,,
acc,1778674697.0,496.0,-2.511658016029138,0.06123250685834336,-9.827019231977804,,,,,,,,,,
acc,1778674697.0,496.0,-2.470375985244881,0.07157354684334521,-9.820888365229543,,,,,,,,,,
acc,1778674697.0,496.0,-2.431208422642064,0.0828855107815992,-9.815168172285354,,,,,,,,,,
acc,1778674697.0,496.0,-2.393426190209976,0.08397814357931829,-9.81226870133941,,,,,,,,,,
acc,1778674697.0,496.0,-2.35705218453534,0.08229211474232953,-9.809005113064657,,,,,,,,,,
acc,1778674697.0,496.0,-2.3213636853205455,0.08410007244580785,-9.80545171405241,,,,,,,,,,
acc,1778674697.0,496.0,-2.2845796271448098,0.08450723008008657,-9.802250072679998,,,,,,,,,,
acc,1778674697.0,496.0,-2.248484792545314,0.08558512609117382,-9.798083619375753,,,,,,,,,,
acc,1778674697.0,496.0,-2.214102327587477,0.08665322711275629,-9.7960138273022,,,,,,,,,,
acc,1778674697.0,496.0,-2.181452166092445,0.0915452583780721,-9.793288414527119,,,,,,,,,,
acc,1778674697.0,496.0,-2.14941816852523,0.09710276771575387,-9.789203397044762,,,,,,,,,,
acc,1778674697.0,496.0,-2.1162908973972305,0.09842117720236747,-9.788279204269429,,,,,,,,,,
acc,1778674697.0,496.0,-2.0827902291572173,0.09869819698543662,-9.784523679224272,,,,,,,,,,
acc,1778674697.0,496.0,-2.050623386151139,0.10103150863436434,-9.782612611641444,,,,,,,,,,
acc,1778674697.0,496.0,-2.0187488476775703,0.10057487534201197,-9.778944074063853,,,,,,,,,,
acc,1778674697.0,496.0,-1.985424615755812,0.0990929914914657,-9.775273378632544,,,,,,,,,,
acc,1778674697.0,496.0,-1.9524032057190304,0.09829901199783263,-9.772026504536752,,,,,,,,,,
acc,1778674697.0,496.0,-1.9196818657830468,0.09683780923093617,-9.76912860264664,,,,,,,,,,
acc,1778674697.0,496.0,-1.8869029073959969,0.09780365557107884,-9.767002461384228,,,,,,,,,,
acc,1778674697.0,496.0,-1.8537118832840145,0.09425265063362175,-9.76525061152095,,,,,,,,,,
acc,1778674697.0,496.0,-1.820148032305017,0.09037895239355921,-9.765218519280694,,,,,,,,,,
acc,1778674697.0,496.0,-1.7861792480281655,0.08863475852552244,-9.764512280392786,,,,,,,,,,
acc,1778674697.0,496.0,-1.7535840462671235,0.08690641438737828,-9.765161335743429,,,,,,,,,,
acc,1778674697.0,496.0,-1.72160450900715,0.08554873772396772,-9.76449111085013,,,,,,,,,,
acc,1778674697.0,496.0,-1.6895961067929404,0.0834934658212053,-9.765175852931241,,,,,,,,,,
acc,1778674697.0,496.0,-1.6571686367037288,0.09086347558825765,-9.76447000175834,,,,,,,,,,
acc,1778674697.0,496.0,-1.624680868640524,0.1012902166518869,-9.762031232070331,,,,,,,,,,
acc,1778674697.0,496.0,-1.5924883213999697,0.11233214111765093,-9.761744421720842,,,,,,,,,,
acc,1778674697.0,496.0,-1.5605883122697881,0.11979506073126096,-9.760004848941113,,,,,,,,,,
acc,1778674697.0,496.0,-1.5289781829158784,0.12403096581631529,-9.75828108389881,,,,,,,,,,
acc,1778674697.0,496.0,-1.4969808608865545,0.125104675058199,-9.75827682126882,,,,,,,,,,
acc,1778674697.0,496.0,-1.4652743029292123,0.12478425644794472,-9.758308100820997,,,,,,,,,,
acc,1778674697.0,496.0,-1.4345303051049105,0.12446674952573013,-9.759013534405804,,,,,,,,,,
acc,1778674697.0,496.0,-1.4044206530835674,0.12450708960615053,-9.761487384660276,,,,,,,,,,
acc,1778674697.0,496.0,-1.374584611616863,0.12628639579257844,-9.763938754696786,,,,,,,,,,
acc,1778674697.0,496.0,-1.3443097617338584,0.12698463877099644,-9.766722810569673,,,,,,,,,,
acc,1778674697.0,496.0,-1.315019956215348,0.12490780398972484,-9.769481567343421,,,,,,,,,,
acc,1778674697.0,496.0,-1.2867062438275256,0.12249487083149474,-9.773599625822785,,,,,,,,,,
acc,1778674697.0,496.0,-1.2589692894571205,0.11974889346854611,-9.777289806804184,,,,,,,,,,
acc,1778674697.0,496.0,-1.2314843846110175,0.12015157277026194,-9.780981948962715,,,,,,,,,,
acc,1778674697.0,496.0,-1.2032198388327675,0.12264489641217989,-9.785350472751102,,,,,,,,,,
acc,1778674697.0,496.0,-1.1759220695087276,0.12791979905538028,-9.78652009212496,,,,,,,,,,
acc,1778674697.0,496.0,-1.1499017588216822,0.138364775064425,-9.789489413495298,,,,,,,,,,
acc,1778674697.0,496.0,-1.1251828017761198,0.14871483613799516,-9.793035201787768,,,,,,,,,,
acc,1778674697.0,496.0,-1.1020728311187065,0.15513720855691596,-9.79626479596005,,,,,,,,,,
acc,1778674697.0,496.0,-1.0777885021261713,0.15418890931816115,-9.799500536725233,,,,,,,,,,
acc,1778674697.0,496.0,-1.0543992773626791,0.1515098947233806,-9.805085141377404,,,,,,,,,,
acc,1778674697.0,496.0,-1.0312225937057655,0.1509495282456057,-9.811328939679246,,,,,,,,,,
acc,1778674697.0,496.0,-1.0082565197651223,0.15248854835047443,-9.81439229613592,,,,,,,,,,
acc,1778674697.0,496.0,-0.9868835126095562,0.15468802144188945,-9.819877080766494,,,,,,,,,,
acc,1778674697.0,496.0,-0.9650302866392978,0.1572224784790375,-9.823537188274923,,,,,,,,,,
acc,1778674697.0,496.0,-0.9426657113089307,0.15728463015301417,-9.828583901150575,,,,,,,,,,
acc,1778674697.0,496.0,-0.9212142985887287,0.15596185522501305,-9.83212939422316,,,,,,,,,,
acc,1778674697.0,496.0,-0.899247885176078,0.15536103316906,-9.835997630685396,,,,,,,,,,
acc,1778674697.0,496.0,-0.8771261218138175,0.15441070000525306,-9.836032583173067,,,,,,,,,,
acc,1778674698.0,497.0,-0.8555603437352982,0.15833204800873987,-9.838906948579078,,,,,,,,,,
acc,1778674698.0,497.0,-0.8359298695339556,0.1632826565904577,-9.84136472901025,,,,,,,,,,
acc,1778674698.0,497.0,-0.8164777801551663,0.16712338390262169,-9.843800175252161,,,,,,,,,,
acc,1778674698.0,497.0,-0.7979123963127146,0.17092920999675987,-9.84553905198449,,,,,,,,,,
acc,1778674698.0,497.0,-0.7798706804435187,0.172961110256159,-9.847262127304475,,,,,,,,,,
acc,1778674698.0,497.0,-0.7616379503576283,0.17497454635807047,-9.850034448296439,,,,,,,,,,
acc,1778674698.0,497.0,-0.7432159327403985,0.1734910207253506,-9.851006740696947,,,,,,,,,,
acc,1778674698.0,497.0,-0.7253162893949238,0.1709915760467163,-9.850905303334942,,,,,,,,,,
acc,1778674698.0,497.0,-0.7075793025736405,0.16713047325783695,-9.850094855114126,,,,,,,,,,
acc,1778674698.0,497.0,-0.688619123286055,0.16294948598113201,-9.848617333273737,,,,,,,,,,
acc,1778674698.0,497.0,-0.6684113724906464,0.16295959554923278,-9.84576886696954,,,,,,,,,,
acc,1778674698.0,497.0,-0.6480677848961384,0.16889755301669387,-9.846389456074464,,,,,,,,,,
acc,1778674698.0,497.0,-0.628583491470811,0.17268725699168846,-9.842141369529035,,,,,,,,,,
acc,1778674698.0,497.0,-0.610341157997874,0.17679748517822363,-9.84006168383333,,,,,,,,,,
acc,1778674698.0,497.0,-0.5922645951215055,0.17948599224693176,-9.838320373028642,,,,,,,,,,
acc,1778674698.0,497.0,-0.5746717638750156,0.17902636489169832,-9.832796743890935,,,,,,,,,,
acc,1778674698.0,497.0,-0.5579487337429913,0.1816946178234874,-9.830092041461244,,,,,,,,,,
acc,1778674698.0,497.0,-0.542087600722916,0.18259929129171348,-9.82670198440094,,,,,,,,,,
acc,1778674698.0,497.0,-0.5249507347348039,0.18175641118584165,-9.822597306262018,,,,,,,,,,
acc,1778674698.0,497.0,-0.507295155533823,0.1812761522210402,-9.818529927898632,,,,,,,,,,
acc,1778674698.0,497.0,-0.48770571147022723,0.18080025743559214,-9.812795672040808,,,,,,,,,,
acc,1778674698.0,497.0,-0.4682942793826522,0.18064815458514688,-9.805693658887527,,,,,,,,,,
acc,1778674698.0,497.0,-0.44870427987828876,0.18085240477485548,-9.800431009747454,,,,,,,,,,
acc,1778674698.0,497.0,-0.42790792648908943,0.17690169527743413,-9.792766917709118,,,,,,,,,,
acc,1778674698.0,497.0,-0.406945590653697,0.1736613156083108,-9.7854919468313,,,,,,,,,,
acc,1778674698.0,497.0,-0.3854638098168555,0.17289965611838656,-9.777324673287964,,,,,,,,,,
