sensor,time,t,ax,ay,az,wx,wy,wz,lat,lon,alt,v_kmh,satellites,x,y
acc,1778674321.0,120.0,-0.035156,0.394531,-9.796875,,,,,,,,,,
acc,1778674321.0,120.0,-0.024167953442639806,0.38232212883651145,-9.79809582460613,,,,,,,,,,
acc,1778674321.0,120.0,-0.018411792944021052,0.4131410047584595,-9.798735361609987,,,,,,,,,,
acc,1778674321.0,120.0,-0.01486912558810641,0.3952795023051293,-9.799128968922883,,,,,,,,,,
acc,1778674321.0,120.0,-0.01246890730184361,0.38317802607224644,-9.799395644671721,,,,,,,,,,
acc,1778674321.0,120.0,-0.01073511814623094,0.37443656768924855,-9.799588276951896,,,,,,,,,,
acc,1778674321.0,120.0,-0.009423942928822657,0.37211989037374194,-9.799733954799182,,,,,,,,,,
acc,1778674321.0,120.0,-0.008397573035871294,0.366477447576863,-9.799847989410681,,,,,,,,,,
acc,1778674321.0,120.0,-0.007572242446886794,0.36194021332160986,-9.795716606718246,,,,,,,,,,
acc,1778674321.0,120.0,-0.006894101586933948,0.35821215091760916,-9.796170154268964,,,,,,,,,,
acc,1778674321.0,120.0,-0.006326956492928088,0.3550942849587231,-9.793014610543006,,,,,,,,,,
acc,1778674321.0,120.0,-0.005845581084184817,0.35244793569778776,-9.796280361487808,,,,,,,,,,
acc,1778674321.0,120.0,-0.0026672097757413885,0.34740884272998723,-9.796322447521845,,,,,,,,,,
acc,1778674321.0,120.0,0.0026788418410946305,0.3404463390682741,-9.796359010131996,,,,,,,,,,
acc,1778674321.0,120.0,0.007366833468360361,0.33676806109244456,-9.796391072151321,,,,,,,,,,
acc,1778674321.0,120.0,0.011511539613654349,0.33122797180456215,-9.796419418543358,,,,,,,,,,
acc,1778674321.0,120.0,0.013038076698380549,0.32845875392910057,-9.796444661750874,,,,,,,,,,
acc,1778674321.0,120.0,0.014406274719220178,0.3259767713723782,-9.794618973090127,,,,,,,,,,
acc,1778674321.0,120.0,0.015639647967615914,0.32569339794128244,-9.794927221136371,,,,,,,,,,
acc,1778674321.0,120.0,0.01675727400797493,0.32357272710546975,-9.795020161775971,,,,,,,,,,
acc,1778674321.0,120.0,0.01777479294065435,0.32164200730519793,-9.795104777610781,,,,,,,,,,
acc,1778674321.0,120.0,0.02041239281422587,0.3198766785921295,-9.795182145006478,,,,,,,,,,
acc,1778674321.0,120.0,0.021194767396766456,0.3182562406259347,-9.795253162412136,,,,,,,,,,
acc,1778674321.0,120.0,0.021915513059934902,0.3167634471959951,-9.797051910630294,,,,,,,,,,
acc,1778674321.0,120.0,0.022581685252408133,0.316901314924225,-9.797196792532343,,,,,,,,,,
acc,1778674321.0,120.0,0.02173541363020567,0.31702913381637743,-9.797331114352618,,,,,,,,,,
acc,1778674321.0,120.0,0.020948597900985636,0.31714797262911615,-9.798728672521989,,,,,,,,,,
acc,1778674321.0,120.0,0.0202151313589552,0.31848969447444564,-9.798800530005986,,,,,,,,,,
acc,1778674321.0,120.0,0.01952971619098375,0.3197435164980674,-9.800059714761305,,,,,,,,,,
acc,1778674321.0,120.0,0.01888773384594847,0.3209178873620269,-9.800083424905603,,,,,,,,,,
acc,1778674321.0,120.0,0.019531373661614577,0.32089855713077925,-9.801227329319689,,,,,,,,,,
acc,1778674321.0,120.0,0.01892598194203702,0.3208803762881931,-9.802303216401413,,,,,,,,,,
acc,1778674321.0,120.0,0.018355507577118273,0.32086324406736383,-9.804494471343009,,,,,,,,,,
acc,1778674321.0,120.0,0.016785536952635367,0.3218785400796088,-9.805416990975827,,,,,,,,,,
acc,1778674321.0,120.0,0.015300978217279871,0.3228386004402581,-9.80628932231635,,,,,,,,,,
acc,1778674321.0,120.0,0.01389494878645868,0.3237478760992737,-9.806135827922414,,,,,,,,,,
acc,1778674321.0,120.0,0.012561286896885286,0.3246103518533108,-9.805990233798305,,,,,,,,,,
acc,1778674321.0,120.0,0.011294459663761795,0.32542960580490443,-9.806785305108153,,,,,,,,,,
acc,1778674321.0,120.0,0.010089484860740464,0.32722217017265154,-9.807642883152672,,,,,,,,,,
acc,1778674321.0,120.0,0.008941864091125386,0.32892941259310743,-9.808459642451695,,,,,,,,,,
acc,1778674321.0,120.0,0.007847525460772903,0.3305573905641823,-9.808172156379182,,,,,,,,,,
acc,1778674321.0,120.0,0.006802774213064389,0.3321116005402796,-9.807897697062272,,,,,,,,,,
acc,1778674321.0,120.0,0.00580425006499038,0.33359704140068974,-9.807635381744438,,,,,,,,,,
acc,1778674321.0,120.0,0.00566887131335771,0.3350182694930092,-9.808386617904567,,,,,,,,,,
acc,1778674321.0,120.0,0.004735123578735463,0.3372728966868865,-9.808123323819505,,,,,,,,,,
acc,1778674321.0,120.0,0.0038399571627202997,0.33943436543241434,-9.807870908725208,,,,,,,,,,
acc,1778674321.0,120.0,0.002120518366979067,0.3415084608924757,-9.80771473620429,,,,,,,,,,
acc,1778674321.0,120.0,0.0013141355594545024,0.34434550483913207,-9.808325274840785,,,,,,,,,,
acc,1778674321.0,120.0,0.001286204605538284,0.34624241386613136,-9.807334693842181,,,,,,,,,,
acc,1778674321.0,120.0,0.0005248615687528947,0.3480673452218231,-9.807116172071618,,,,,,,,,,
acc,1778674321.0,120.0,0.0005140787024357402,0.34982442278270787,-9.807788539443154,,,,,,,,,,
acc,1778674321.0,120.0,0.0005036888390549718,0.3507279716504369,-9.807567969745795,,,,,,,,,,
acc,1778674321.0,120.0,0.0004936703034379949,0.3515992281993708,-9.807355283083032,,,,,,,,,,
acc,1778674321.0,120.0,0.00048400299216639004,0.35243994071245455,-9.807150052673034,,,,,,,,,,
acc,1778674321.0,120.0,0.001228040300119775,0.3532517329481907,-9.807780606834532,,,,,,,,,,
acc,1778674321.0,120.0,0.0012047052733009807,0.35403611502719917,-9.806905351494219,,,,,,,,,,
acc,1778674321.0,120.0,0.0011821438515242364,0.354794493196466,-9.80671750555742,,,,,,,,,,
acc,1778674321.0,120.0,0.0011603170287051,0.35552817860398545,-9.806535775876535,,,,,,,,,,
acc,1778674321.0,120.0,0.0011391883928881924,0.3555271009992095,-9.806430985064459,,,,,,,,,,
acc,1778674321.0,120.0,0.001820437054090039,0.3548944938850972,-9.806329488245055,,,,,,,,,,
acc,1778674321.0,120.0,0.0024806362766906114,0.3542814332675369,-9.806231127506777,,,,,,,,,,
acc,1778674321.0,120.0,0.0031207788129362733,0.35368699727736486,-9.806135754942991,,,,,,,,,,
acc,1778674321.0,120.0,0.003741795493344599,0.3524353819425991,-9.80597574136797,,,,,,,,,,
acc,1778674321.0,120.0,0.004344559976740278,0.3518871735165153,-9.806487068683255,,,,,,,,,,
acc,1778674321.0,120.0,0.004929893069782101,0.35135481877015806,-9.806390864849412,,,,,,,,,,
acc,1778674321.0,120.0,0.0048477563296979624,0.3508376156785875,-9.806297399128246,,,,,,,,,,
acc,1778674321.0,120.0,0.005411214870652886,0.3503349034445323,-9.80620655210459,,,,,,,,,,
acc,1778674321.0,120.0,0.0059591292972276996,0.3492100377063247,-9.806054612350412,,,,,,,,,,
acc,1778674321.0,120.0,0.005863174344084562,0.34874471639582233,-9.806535799939848,,,,,,,,,,
acc,1778674321.0,120.0,0.006391955675499971,0.3482918482797219,-9.807004109712473,,,,,,,,,,
acc,1778674321.0,120.0,0.0069067941320585325,0.347235353793509,-9.806844487792194,,,,,,,,,,
acc,1778674321.0,120.0,0.007408254815447079,0.34620631169243143,-9.806689013553221,,,,,,,,,,
acc,1778674321.0,120.0,0.00789687231589998,0.3458065986796004,-9.806597815535477,,,,,,,,,,
acc,1778674321.0,120.0,0.008373152742230742,0.3448200137808236,-9.806449226805942,,,,,,,,,,
acc,1778674321.0,120.0,0.008246439496027267,0.3438579911048558,-9.805772311859268,,,,,,,,,,
acc,1778674321.0,120.0,0.008122837437735338,0.3435050711608623,-9.805697499399942,,,,,,,,,,
acc,1778674321.0,120.0,0.008002228886636471,0.3431606985534223,-9.805624498816876,,,,,,,,,,
acc,1778674321.0,120.0,0.00788450211594207,0.34224988398970735,-9.805495778399665,,,,,,,,,,
acc,1778674321.0,120.0,0.007769550981255121,0.34136054363856316,-9.805370092814913,,,,,,,,,,
acc,1778674321.0,120.0,0.008221752618227243,0.3410563748634208,-9.805811824226208,,,,,,,,,,
acc,1778674321.0,120.0,0.00866356817378714,0.3401995922828789,-9.80629936715867,,,,,,,,,,
acc,1778674321.0,120.0,0.009095365620797862,0.33936223713260033,-9.806165497829422,,,,,,,,,,
acc,1778674321.0,120.0,0.008967242295419746,0.339093882914372,-9.806584892952385,,,,,,,,,,
acc,1778674321.0,120.0,0.009387726559750835,0.33932267621879647,-9.80590343759017,,,,,,,,,,
acc,1778674321.0,120.0,0.008770326940480353,0.3395464728098105,-9.805832437894765,,,,,,,,,,
acc,1778674321.0,120.0,0.008649716483539424,0.33928195832017366,-9.805762969990452,,,,,,,,,,
acc,1778674321.0,120.0,0.008051916025992268,0.339023082294993,-9.805694982883315,,,,,,,,,,
acc,1778674321.0,120.0,0.007942860828479701,0.3392458259000934,-9.805628427870548,,,,,,,,,,
acc,1778674321.0,120.0,0.007836075963696596,0.3394639323846486,-9.806035913741367,,,,,,,,,,
acc,1778674321.0,120.0,0.007731488525225339,0.3392083131743238,-9.806435014339833,,,,,,,,,,
acc,1778674321.0,120.0,0.0076290287755417475,0.339423804136563,-9.806825995780962,,,,,,,,,,
acc,1778674321.0,120.0,0.00706597341584235,0.33963496055708875,-9.8067464430175,,,,,,,,,,
acc,1778674321.0,120.0,0.006973618744203036,0.3403524704313379,-9.806157919049195,,,,,,,,,,
acc,1778674321.0,120.0,0.00688308094912174,0.34054872682369736,-9.80553024881478,,,,,,,,,,
acc,1778674321.0,120.0,0.0067943049747046244,0.34124497446888724,-9.805418615935109,,,,,,,,,,
acc,1778674321.0,120.0,0.006707238034509435,0.3419278185884005,-9.805309132109986,,,,,,,,,,
acc,1778674321.0,120.0,0.0061741604887413665,0.34259765628283234,-9.805201733670282,,,,,,,,,,
acc,1778674321.0,120.0,0.0060960269789252985,0.34325486861615373,-9.805096359518096,,,,,,,,,,
acc,1778674321.0,120.0,0.006019350958815085,0.34389982141815967,-9.8049929509981,,,,,,,,,,
acc,1778674321.0,120.0,0.00594409065767003,0.34453286603932737,-9.804891451776511,,,,,,,,,,
acc,1778674321.0,120.0,0.005870205941669349,0.3451543400613431,-9.805325910005317,,,,,,,,,,
acc,1778674321.0,120.0,0.0057976582343532285,0.34576456796630456,-9.805752506331737,,,,,,,,,,
acc,1778674321.0,120.0,0.005726410441646848,0.3468439094718071,-9.805643410088857,,,,,,,,,,
acc,1778674321.0,120.0,0.005226778661311678,0.34790409896911434,-9.805536249667147,,,,,,,,,,
acc,1778674321.0,120.0,0.005163247354334072,0.3489456566397251,-9.805430972488397,,,,,,,,,,
acc,1778674321.0,120.0,0.005100821977824037,0.3499690832436782,-9.80532752793745,,,,,,,,,,
acc,1778674321.0,120.0,0.0055092815548826255,0.35097486102051334,-9.80522586727114,,,,,,,,,,
acc,1778674321.0,120.0,0.005443359298692287,0.35149603949430597,-9.805125943532232,,,,,,,,,,
acc,1778674321.0,120.0,0.005843607883368516,0.35200839459477057,-9.805539281272072,,,,,,,,,,
acc,1778674321.0,120.0,0.005774379490948906,0.35251215386001417,-9.805436636762737,,,,,,,,,,
acc,1778674321.0,120.0,0.006166825217890639,0.3530075367190616,-9.805335699005344,,,,,,,,,,
acc,1778674321.0,120.0,0.006552802792107035,0.3534947548517027,-9.805236424868639,,,,,,,,,,
acc,1778674321.0,120.0,0.006932474038876122,0.3539740125294159,-9.805138772730865,,,,,,,,,,
acc,1778674321.0,120.0,0.0068518807070131705,0.3544455069385184,-9.80504270241392,,,,,,,,,,
acc,1778674321.0,120.0,0.006772581817011357,0.35445735213360724,-9.805400263047213,,,,,,,,,,
acc,1778674321.0,120.0,0.0071446309732973974,0.3540639183039729,-9.805752128763832,,,,,,,,,,
acc,1778674321.0,120.0,0.007510803367662746,0.35408003812038014,-9.805695097430183,,,,,,,,,,
acc,1778674321.0,120.0,0.007425001203274968,0.3545421431590744,-9.8055943381089,,,,,,,,,,
acc,1778674321.0,120.0,0.007340532474123352,0.3541527322199826,-9.805539580332853,,,,,,,,,,
acc,1778674321.0,120.0,0.007699928990469059,0.35376932494979474,-9.80588398703856,,,,,,,,,,
acc,1778674321.0,120.0,0.007613040670166508,0.3537885045955233,-9.80622312558228,,,,,,,,,,
acc,1778674321.0,120.0,0.007527471127130342,0.3534122332310588,-9.806161956829952,,,,,,,,,,
acc,1778674321.0,120.0,0.007443190412056516,0.35304162917576465,-9.80610170938672,,,,,,,,,,
acc,1778674321.0,120.0,0.007360169528196886,0.35306870391927203,-9.806042362524476,,,,,,,,,,
acc,1778674321.0,120.0,0.007278380393356682,0.35227062588093355,-9.805940491141381,,,,,,,,,,
acc,1778674321.0,120.0,0.007197795803688388,0.35148430149483467,-9.805840120063712,,,,,,,,,,
acc,1778674322.0,121.0,0.0071183893991839595,0.3507094735465721,-9.805741216459104,,,,,,,,,,
acc,1778674322.0,121.0,0.007469551405921004,0.34994589273467447,-9.80564374850525,,,,,,,,,,
acc,1778674322.0,121.0,0.007387721180104178,0.348765386407476,-9.806018418167554,,,,,,,,,,
acc,1778674322.0,121.0,0.007307062130520821,0.3480282542435625,-9.805918590439711,,,,,,,,,,
acc,1778674322.0,121.0,0.0072275495371831805,0.3473015993884891,-9.805820181624226,,,,,,,,,,
acc,1778674322.0,121.0,0.006767856862603525,0.3465852026563909,-9.805723162037372,,,,,,,,,,
acc,1778674322.0,121.0,0.006314610060415444,0.3458788513354385,-9.805627502872191,,,,,,,,,,
acc,1778674322.0,121.0,0.006246556798622965,0.3456033145072744,-9.805954162503802,,,,,,,,,,
acc,1778674322.0,121.0,0.006179445269192934,0.34491191771065405,-9.805478910375962,,,,,,,,,,
acc,1778674322.0,121.0,0.006113256449165106,0.3442300268563109,-9.80538675280346,,,,,,,,,,
acc,1778674322.0,121.0,0.005672534473409805,0.34355745157249334,-9.805295854230637,,,,,,,,,,
acc,1778674322.0,121.0,0.00561213378725496,0.3433099358929432,-9.80524778042964,,,,,,,,,,
acc,1778674322.0,121.0,0.00555254799503946,0.3426510260049747,-9.805158883982433,,,,,,,,,,
acc,1778674322.0,121.0,0.0054937611885587595,0.34241451476727,-9.80548475346408,,,,,,,,,,
acc,1778674322.0,121.0,0.005435757900646905,0.34218115578357555,-9.80543509110034,,,,,,,,,,
acc,1778674322.0,121.0,0.005378523089625318,0.34232106769034404,-9.804933652539388,,,,,,,,,,
acc,1778674322.0,121.0,0.004952861815921727,0.34245913680247153,-9.804890044690216,,,,,,,,,,
acc,1778674322.0,121.0,0.004900987137293524,0.34259539791724747,-9.804847007880248,,,,,,,,,,
acc,1778674322.0,121.0,0.0052578578409203346,0.34272988489665723,-9.804804531414488,,,,,,,,,,
acc,1778674322.0,121.0,0.005203069219059983,0.3428626306994822,-9.805128952478949,,,,,,,,,,
acc,1778674322.0,121.0,0.005555015356466213,0.3429936674120925,-9.805449196651523,,,,,,,,,,
acc,1778674322.0,121.0,0.0054974144483130195,0.34312302627799374,-9.805400791318808,,,,,,,,,,
acc,1778674322.0,121.0,0.0058446192881503765,0.3432507377261862,-9.80571667982078,,,,,,,,,,
acc,1778674322.0,121.0,0.006187425934554622,0.34337683139839076,-9.80522229879842,,,,,,,,,,
acc,1778674322.0,121.0,0.006123718248170824,0.3439035308312349,-9.805136352380696,,,,,,,,,,
acc,1778674322.0,121.0,0.0060608091803394225,0.34442362773363916,-9.80505148335893,,,,,,,,,,
acc,1778674322.0,121.0,0.005998684694069572,0.34493723815557387,-9.804967672796174,,,,,,,,,,
acc,1778674322.0,121.0,0.0059373311047705825,0.3454444752335625,-9.804884902230894,,,,,,,,,,
acc,1778674322.0,121.0,0.005517935096030786,0.3459454492849837,-9.804803153661583,,,,,,,,,,
acc,1778674322.0,121.0,0.0058595639846904845,0.3464402678987447,-9.804722409531964,,,,,,,,,,
acc,1778674322.0,121.0,0.006197015540234785,0.3469290360224857,-9.804642652716762,,,,,,,,,,
acc,1778674322.0,121.0,0.006134160083405839,0.3474118560464691,-9.804999695030133,,,,,,,,,,
acc,1778674322.0,121.0,0.006072065967022834,0.3478888278842979,-9.805352412647323,,,,,,,,,,
acc,1778674322.0,121.0,0.006405359947258646,0.34836004905060114,-9.805266766201335,,,,,,,,,,
acc,1778674322.0,121.0,0.006340771375189329,0.3488256147358177,-9.805615426413338,,,,,,,,,,
acc,1778674322.0,121.0,0.006276954502388143,0.34928561787820295,-9.805527458144551,,,,,,,,,,
acc,1778674322.0,121.0,0.0062138967382300335,0.3497401492331768,-9.80544053626789,,,,,,,,,,
acc,1778674322.0,121.0,0.006151585785650148,0.3501892974401261,-9.805785523107469,,,,,,,,,,
acc,1778674322.0,121.0,0.006090009632214517,0.3506331490867687,-9.806126441705045,,,,,,,,,,
acc,1778674322.0,121.0,0.006419475042217592,0.3514621172641656,-9.806463357039668,,,,,,,,,,
acc,1778674322.0,121.0,0.006355440075795557,0.35150208635817387,-9.806757369830411,,,,,,,,,,
acc,1778674322.0,121.0,0.006681141093713163,0.35154158998723567,-9.807047958659433,,,,,,,,,,
acc,1778674322.0,121.0,0.007003064465841271,0.35196898123949244,-9.80737400968394,,,,,,,,,,
acc,1778674322.0,121.0,0.007321268889246017,0.3523914351486124,-9.80726980063061,,,,,,,,,,
acc,1778674322.0,121.0,0.007248716907789033,0.3528090279148327,-9.807166790702412,,,,,,,,,,
acc,1778674322.0,121.0,0.0071769965468621464,0.3532218340617129,-9.807490106024934,,,,,,,,,,
acc,1778674322.0,121.0,0.007106095141705623,0.3532440337690145,-9.807771142199803,,,,,,,,,,
acc,1778674322.0,121.0,0.006689219950167571,0.35326598093515943,-9.807702191125355,,,,,,,,,,
acc,1778674322.0,121.0,0.0066233351323996955,0.3529414039224713,-9.80763402153018,,,,,,,,,,
acc,1778674322.0,121.0,0.006942370913898009,0.3526204922134747,-9.807144019625367,,,,,,,,,,
acc,1778674322.0,121.0,0.007257816886354843,0.35230319142156413,-9.80708152858887,,,,,,,,,,
acc,1778674322.0,121.0,0.007569725978562415,0.35198944830672657,-9.807019738221687,,,,,,,,,,
acc,1778674322.0,121.0,0.00749559079824543,0.35167921074345787,-9.80695863825792,,,,,,,,,,
acc,1778674322.0,121.0,0.00742228111657907,0.3513724276897588,-9.806898218645065,,,,,,,,,,
acc,1778674322.0,121.0,0.007349784988190078,0.3510690491571694,-9.80683846953811,,,,,,,,,,
acc,1778674322.0,121.0,0.007278090712539509,0.3507690261818014,-9.806779381293827,,,,,,,,,,
acc,1778674322.0,121.0,0.007207186827229971,0.35009176489805116,-9.806682891823847,,,,,,,,,,
acc,1778674322.0,121.0,0.007137062101533548,0.3494219460081489,-9.806587462672322,,,,,,,,,,
acc,1778674322.0,121.0,0.007447302394155767,0.3487594643912556,-9.806493078862678,,,,,,,,,,
acc,1778674322.0,121.0,0.007754154887065154,0.34810421702176614,-9.806399725716847,,,,,,,,,,
acc,1778674322.0,121.0,0.007678982707881172,0.34745610291334816,-9.8063073888473,,,,,,,,,,
acc,1778674322.0,121.0,0.007604626404537166,0.34681502306478995,-9.805875635333472,,,,,,,,,,
acc,1778674322.0,121.0,0.007531074718443488,0.3465586867335493,-9.80582636019504,,,,,,,,,,
acc,1778674322.0,121.0,0.007458316609293562,0.3459277360743876,-9.805400236667209,,,,,,,,,,
acc,1778674322.0,121.0,0.0070470735719362606,0.3456805352755585,-9.805355659420208,,,,,,,,,,
acc,1778674322.0,121.0,0.006640242217964269,0.3454359863676016,-9.805311560383613,,,,,,,,,,
acc,1778674322.0,121.0,0.006237763017150935,0.3448179039007155,-9.805230320063895,,,,,,,,,,
acc,1778674322.0,121.0,0.00617775913436407,0.3445821704524903,-9.805187520028232,,,,,,,,,,
acc,1778674322.0,121.0,0.006118393653700491,0.34397357684134316,-9.805107640457619,,,,,,,,,,
acc,1778674322.0,121.0,0.00605965809924226,0.34374642966615415,-9.805066105433786,,,,,,,,,,
acc,1778674322.0,121.0,0.00600154415175518,0.34352168642277237,-9.805025009981192,,,,,,,,,,
acc,1778674322.0,121.0,0.005944043644761122,0.34329931552909293,-9.805321185857572,,,,,,,,,,
acc,1778674322.0,121.0,0.0058871485607307735,0.34307928597903864,-9.805277728192838,,,,,,,,,,
acc,1778674322.0,121.0,0.005494661773525283,0.34319776614493736,-9.804823823660314,,,,,,,,,,
acc,1778674322.0,121.0,0.004733080695491251,0.3433150050134101,-9.8047478809228,,,,,,,,,,
acc,1778674322.0,121.0,0.003979459262267283,0.34309543438963486,-9.804672731898831,,,,,,,,,,
acc,1778674322.0,121.0,0.002861168703220995,0.34321343871684684,-9.804225830066772,,,,,,,,,,
acc,1778674322.0,121.0,0.0021267121149071903,0.3433302155464689,-9.80415578785406,,,,,,,,,,
acc,1778674322.0,121.0,0.0017717694119016273,0.3431110751679673,-9.80371458096767,,,,,,,,,,
acc,1778674322.0,121.0,0.001420502001081863,0.3432286272521572,-9.803686675913903,,,,,,,,,,
acc,1778674322.0,121.0,0.00033033120155840615,0.3433449648476741,-9.803250663906681,,,,,,,,,,
acc,1778674322.0,121.0,-0.0007486012381649684,0.34346010314143266,-9.802819146662863,,,,,,,,,,
acc,1778674322.0,121.0,-0.002187108877985947,0.34357405706099725,-9.80239206823667,,,,,,,,,,
acc,1778674322.0,121.0,-0.003981224670554251,0.34405721524634414,-9.801969373631588,,,,,,,,,,
acc,1778674322.0,121.0,-0.005756962949114817,0.34453542433846307,-9.801551008778272,,,,,,,,,,
acc,1778674322.0,121.0,-0.00714473952569994,0.34500874510564583,-9.80117390907087,,,,,,,,,,
acc,1778674322.0,121.0,-0.008518358739614196,0.3447751080782433,-9.800505023972555,,,,,,,,,,
acc,1778674322.0,121.0,-0.009508716679483024,0.34487620118400497,-9.800101431864151,,,,,,,,,,
acc,1778674322.0,121.0,-0.010120008478968639,0.34497626705789003,-9.799406734679552,,,,,,,,,,
acc,1778674322.0,121.0,-0.01072510074978869,0.34507531809523695,-9.798719082894733,,,,,,,,,,
acc,1778674322.0,121.0,-0.010955568689909807,0.345173366490195,-9.798075248385953,,,,,,,,,,
acc,1778674322.0,121.0,-0.01155195805204572,0.3452704242402181,-9.79703284678858,,,,,,,,,,
acc,1778674322.0,121.0,-0.012510328683177675,0.3453665031504328,-9.796037755653513,,,,,,,,,,
acc,1778674322.0,121.0,-0.013459051433338363,0.3461971360355483,-9.794317160865681,,,,,,,,,,
acc,1778674322.0,121.0,-0.014030719997485838,0.3466518920263626,-9.792944636161524,,,,,,,,,,
acc,1778674322.0,121.0,-0.013898793006224373,0.3467347968613816,-9.791585880108412,,,,,,,,,,
acc,1778674322.0,121.0,-0.01340112478317012,0.3471839338575353,-9.78991036379137,,,,,,,,,,
acc,1778674322.0,121.0,-0.012908432031536497,0.3476285805764626,-9.788251598561022,,,,,,,,,,
acc,1778674322.0,121.0,-0.012420656848666401,0.3480687892743138,-9.78660938947455,,,,,,,,,,
acc,1778674322.0,121.0,-0.01157132573805417,0.3481382043010877,-9.78531332223332,,,,,,,,,,
acc,1778674322.0,121.0,-0.01036423828872414,0.3482069287327437,-9.78403014928531,,,,,,,,,,
acc,1778674322.0,121.0,-0.008473757395800549,0.348640960889101,-9.782393722499204,,,,,,,,,,
acc,1778674322.0,121.0,-0.006602025784277731,0.3490706884311842,-9.781139322535882,,,,,,,,,,
acc,1778674322.0,121.0,-0.0043832308404776095,0.34949616054072935,-9.780299490499578,,,,,,,,,,
acc,1778674322.0,121.0,-0.0018209809450822644,0.3495520317060674,-9.779467962557291,,,,,,,,,,
acc,1778674322.0,121.0,0.0007159712207783445,0.3496073512415148,-9.778644644496882,,,,,,,,,,
acc,1778674322.0,121.0,0.0035929356526705706,0.34966212538391556,-9.778194467469795,,,,,,,,,,
acc,1778674322.0,121.0,0.006441576567642405,0.3493880018551761,-9.777748722404572,,,,,,,,,,
acc,1778674322.0,121.0,0.009626861317080964,0.3494447688301979,-9.777599082685947,,,,,,,,,,
acc,1778674322.0,121.0,0.012416402414114484,0.34950097848755435,-9.778143419458614,,,,,,,,,,
acc,1778674322.0,121.0,0.015178593830931782,0.349556637044891,-9.77868241935466,,,,,,,,,,
acc,1778674322.0,121.0,0.017913739708656777,0.34961175063069555,-9.779216141722628,,,,,,,,,,
acc,1778674322.0,121.0,0.020622139851155012,0.3496663252860594,-9.780108603478192,,,,,,,,,,
acc,1778674322.0,121.0,0.023304089810224474,0.3497203669663941,-9.780628555836174,,,,,,,,,,
acc,1778674322.0,121.0,0.025596239752039708,0.3497738815431044,-9.781507068668432,,,,,,,,,,
acc,1778674322.0,121.0,0.027502587436670063,0.3498268748052192,-9.782776851369261,,,,,,,,,,
acc,1778674322.0,121.0,0.02975370439713941,0.35024266984912783,-9.784760923595146,,,,,,,,,,
acc,1778674322.0,121.0,0.031619780542732,0.35029125971864544,-9.786725714626488,,,,,,,,,,
acc,1778674322.0,121.0,0.03277800503307604,0.35033937794891595,-9.788272111064966,,,,,,,,,,
acc,1778674322.0,121.0,0.03392500020379214,0.35038702965910146,-9.790166391139596,,,,,,,,,,
acc,1778674322.0,121.0,0.0343354332500386,0.3504342198984129,-9.792405049068122,,,,,,,,,,
acc,1778674322.0,121.0,0.03437930610639071,0.3504809536474207,-9.794622051551531,,,,,,,,,,
acc,1778674322.0,121.0,0.034060313690724806,0.35052723581933365,-9.796817631667547,,,,,,,,,,
acc,1778674322.0,121.0,0.0334183242696213,0.35024698596611503,-9.799390561868147,,,,,,,,,,
acc,1778674322.0,121.0,0.032420345233166094,0.3502954028193697,-9.801902459275636,,,,,,,,,,
acc,1778674322.0,121.0,0.03143197871272889,0.3503433533223701,-9.804064325422894,,,,,,,,,,
acc,1778674322.0,121.0,0.029367384739170662,0.3497032033725889,-9.806169200800602,,,,,,,,,,
acc,1778674322.0,121.0,0.027684418987578823,0.34975660475010034,-9.80865181152101,,,,,,,,,,
acc,1778674323.0,122.0,0.02565595651647811,0.34876067403431393,-9.811110582095619,,,,,,,,,,
acc,1778674323.0,122.0,0.02332157008176084,0.3484973692337017,-9.813871148475314,,,,,,,,,,
acc,1778674323.0,122.0,0.02028670717977298,0.3485618732772079,-9.81624383176822,,,,,,,,,,
acc,1778674323.0,122.0,0.016919606039491976,0.34793928253073625,-9.817907328043704,,,,,,,,,,
acc,1778674323.0,122.0,0.013945898322789946,0.34800890519675054,-9.819916092886661,,,,,,,,,,
acc,1778674323.0,122.0,0.010639543729998169,0.347752889429914,-9.82186955345938,,,,,,,,,,
acc,1778674323.0,122.0,0.007364762168783897,0.34749931840808707,-9.823804360052128,,,,,,,,,,
acc,1778674323.0,122.0,0.004121224693269028,0.34688731865718897,-9.825035084721005,,,,,,,,,,
acc,1778674323.0,122.0,0.00090860651704271,0.3462811528464273,-9.826254077401376,,,,,,,,,,
acc,1778674323.0,122.0,-0.0026340483249683052,0.34568076046561647,-9.827822104278072,,,,,,,,,,
acc,1778674323.0,122.0,-0.0057824574101610505,0.3450860817629064,-9.828293594985581,,,,,,,,,,
acc,1778674323.0,122.0,-0.008900928950987725,0.34485748800998056,-9.82908499148505,,,,,,,,,,
acc,1778674323.0,122.0,-0.011629440865120654,0.3449553747661158,-9.829544569433557,,,,,,,,,,
acc,1778674323.0,122.0,-0.014332049296752955,0.34505233222160864,-9.829639551569455,,,,,,,,,,
acc,1778674323.0,122.0,-0.01700902008596046,0.34514836991360737,-9.830093769377003,,,,,,,,,,
acc,1778674323.0,122.0,-0.019300564188531537,0.3449194480356795,-9.830183639237703,,,,,,,,,,
acc,1778674323.0,122.0,-0.02157040297940726,0.3446926944863946,-9.829552748950944,,,,,,,,,,
acc,1778674323.0,122.0,-0.02277515577667008,0.3447919712862033,-9.828891836733604,,,,,,,,,,
acc,1778674323.0,122.0,-0.023968513915136828,0.34456650525585525,-9.827985340315186,,,,,,,,,,
acc,1778674323.0,122.0,-0.02515059319237882,0.34466689524073735,-9.82733918539939,,,,,,,,,,
acc,1778674323.0,122.0,-0.025602306266783142,0.34476633706630905,-9.826411452562557,,,,,,,,,,
acc,1778674323.0,122.0,-0.026049755948211382,0.3445412685869529,-9.825492475924921,,,,,,,,,,
acc,1778674323.0,122.0,-0.026133547067341893,0.344641820124936,-9.824618117260016,,,,,,,,,,
acc,1778674323.0,122.0,-0.026216548399764096,0.3447414238981796,-9.823392643066924,,,,,,,,,,
acc,1778674323.0,122.0,-0.025975424941722385,0.3448400894511972,-9.821783519398412,,,,,,,,,,
acc,1778674323.0,122.0,-0.0253773817577514,0.3449378262160283,-9.820584649872302,,,,,,,,,,
acc,1778674323.0,122.0,-0.024425842913269116,0.3450346435139809,-9.819397058812621,,,,,,,,,,
acc,1778674323.0,122.0,-0.023124203948712358,0.3440893319835702,-9.818184731348518,,,,,,,,,,
acc,1778674323.0,122.0,-0.021475832338845383,0.34491184129907376,-9.817342757944045,,,,,,,,,,
acc,1778674323.0,122.0,-0.01951993674447399,0.3450088373647566,-9.816149800915099,,,,,,,,,,
acc,1778674323.0,122.0,-0.01758239718613294,0.34510492312455116,-9.814968039760956,,,,,,,,,,
acc,1778674323.0,122.0,-0.015304273200457892,0.34520010764028936,-9.813797363029922,,,,,,,,,,
acc,1778674323.0,122.0,-0.013406193853644407,0.34529439986970223,-9.812637660550637,,,,,,,,,,
acc,1778674323.0,122.0,-0.011167276501207813,0.34538780866797264,-9.811847435489268,,,,,,,,,,
acc,1778674323.0,122.0,-0.008949324298944534,0.3454803427892564,-9.810706064365766,,,,,,,,,,
acc,1778674323.0,122.0,-0.006752129804105572,0.34557201088817296,-9.809933855824339,,,,,,,,,,
acc,1778674323.0,122.0,-0.004575487924712032,0.34566282152126665,-9.809168870542042,,,,,,,,,,
acc,1778674323.0,122.0,-0.0024191958852348766,0.345430253741766,-9.808411037252997,,,,,,,,,,
acc,1778674323.0,122.0,-0.0002830531929537438,0.34552233309502683,-9.807982759410118,,,,,,,,,,
acc,1778674323.0,122.0,0.001474897630282362,0.3456135524473205,-9.807558481588373,,,,,,,,,,
acc,1778674323.0,122.0,0.003216437625013059,0.34570392024840635,-9.806815798529312,,,,,,,,,,
acc,1778674323.0,122.0,0.004619423533556408,0.3457934448538241,-9.806366539963186,,,,,,,,,,
acc,1778674323.0,122.0,0.0056512682204628364,0.34624019108540127,-9.80595728430463,,,,,,,,,,
acc,1778674323.0,122.0,0.0063154845929736,0.34632477243410975,-9.80590984404318,,,,,,,,,,
acc,1778674323.0,122.0,0.0069735119901441845,0.34640856567836453,-9.805862845816314,,,,,,,,,,
acc,1778674323.0,122.0,0.007267510733012245,0.34649157851148965,-9.806138398142707,,,,,,,,,,
acc,1778674323.0,122.0,0.007558772514669146,0.3465738185423161,-9.806769222958803,,,,,,,,,,
acc,1778674323.0,122.0,0.007489538499108388,0.3466552932963535,-9.807036392206143,,,,,,,,,,
acc,1778674323.0,122.0,0.007420948460366993,0.3464140384436028,-9.807301076391758,,,,,,,,,,
acc,1778674323.0,122.0,0.007031078841775611,0.34649695313185574,-9.807563299657833,,,,,,,,,,
acc,1778674323.0,122.0,0.006287188998420901,0.34657909723109176,-9.808216481918558,,,,,,,,,,
acc,1778674323.0,122.0,0.005192624010722246,0.34666047821040075,-9.808470253455553,,,,,,,,,,
acc,1778674323.0,122.0,0.004108223526252584,0.3467411034582216,-9.809436744875605,,,,,,,,,,
acc,1778674323.0,122.0,0.0030338892414820276,0.3468209802834284,-9.81039426461427,,,,,,,,,,
acc,1778674323.0,122.0,0.001612069215940514,0.346900115916396,-9.811342899345336,,,,,,,,,,
acc,1778674323.0,122.0,0.00020343758303904033,0.34665684612307235,-9.81192533436136,,,,,,,,,,
acc,1778674323.0,122.0,-0.001192132799789101,0.34673746354381974,-9.81250236886726,,,,,,,,,,
acc,1778674323.0,122.0,-0.0025747677201448374,0.3464957412987754,-9.813074054873159,,,,,,,,,,
acc,1778674323.0,122.0,-0.003944591628478742,0.34625625876758587,-9.813640443836297,,,,,,,,,,
acc,1778674323.0,122.0,-0.005301727655590935,0.3460189944236333,-9.814201586668274,,,,,,,,,,
acc,1778674323.0,122.0,-0.007003484658396517,0.3457839269680053,-9.814436063587618,,,,,,,,,,
acc,1778674323.0,122.0,-0.008689489982684085,0.34587247828015966,-9.815025516805468,,,,,,,,,,
acc,1778674323.0,122.0,-0.010681292715590526,0.3459602102211303,-9.814895292632167,,,,,,,,,,
acc,1778674323.0,122.0,-0.012333308055120588,0.3460471306362252,-9.81512335025579,,,,,,,,,,
acc,1778674323.0,122.0,-0.013613017167419868,0.3458119094490151,-9.815313597847435,,,,,,,,,,
acc,1778674323.0,122.0,-0.01488089637391003,0.3455788626969654,-9.815502086749493,,,,,,,,,,
acc,1778674323.0,122.0,-0.01578009400437733,0.3453479696162753,-9.815688833755788,,,,,,,,,,
acc,1778674323.0,122.0,-0.016670984327703007,0.34511920965924253,-9.815873855485362,,,,,,,,,,
acc,1778674323.0,122.0,-0.01755364653453532,0.34489256249154665,-9.815735961986045,,,,,,,,,,
acc,1778674323.0,122.0,-0.01807131004328163,0.3453460319602401,-9.815599341677137,,,,,,,,,,
acc,1778674323.0,122.0,-0.018941009979985553,0.3454385009585893,-9.81546398244191,,,,,,,,,,
acc,1778674323.0,122.0,-0.01944590329725429,0.34553011666192884,-9.815294196004192,,,,,,,,,,
acc,1778674323.0,122.0,-0.019946138794451812,0.3452998029151048,-9.81512597590663,,,,,,,,,,
acc,1778674323.0,122.0,-0.020085035844047402,0.3453926684220782,-9.814602582428778,,,,,,,,,,
acc,1778674323.0,122.0,-0.019901634863657355,0.34548467767237157,-9.814084014845665,,,,,,,,,,
acc,1778674323.0,122.0,-0.019363271791603517,0.3452548404156479,-9.81357022740951,,,,,,,,,,
acc,1778674323.0,122.0,-0.01882987006562657,0.3450271212502852,-9.813061174839866,,,,,,,,,,
acc,1778674323.0,122.0,-0.018301382723172686,0.34512244380152435,-9.812556812317965,,,,,,,,,,
acc,1778674323.0,122.0,-0.017777763279610385,0.34521688833638686,-9.812449321371638,,,,,,,,,,
acc,1778674323.0,122.0,-0.017258965722486006,0.34531046315407715,-9.81195062631698,,,,,,,,,,
acc,1778674323.0,122.0,-0.01638843054118416,0.34540317646965324,-9.81145652252795,,,,,,,,,,
acc,1778674323.0,122.0,-0.015525908111623028,0.3454950364150305,-9.81096696666654,,,,,,,,,,
acc,1778674323.0,122.0,-0.014671322850270766,0.34558605103996953,-9.810481915832577,,,,,,,,,,
acc,1778674323.0,122.0,-0.013824599935858493,0.34567622831304884,-9.81000132755854,,,,,,,,,,
acc,1778674323.0,122.0,-0.012985665300389942,0.34544480882184286,-9.809917202645059,,,,,,,,,,
acc,1778674323.0,122.0,-0.011798066548128372,0.3455362613972016,-9.809441837113138,,,,,,,,,,
acc,1778674323.0,122.0,-0.010977740315730308,0.34530615221486055,-9.809362828332063,,,,,,,,,,
acc,1778674323.0,122.0,-0.009808626222341351,0.34539885661890257,-9.809284545817365,,,,,,,,,,
acc,1778674323.0,122.0,-0.00900656053850048,0.34549070903969226,-9.808815051217476,,,,,,,,,,
acc,1778674323.0,122.0,-0.008211864597806698,0.3459379880728662,-9.808385504902754,,,,,,,,,,
acc,1778674323.0,122.0,-0.0077807252188874495,0.34638115812380915,-9.808672407531793,,,,,,,,,,
acc,1778674323.0,122.0,-0.007353545776945551,0.3468202577382348,-9.808564821776647,,,,,,,,,,
acc,1778674323.0,122.0,-0.006930289145348786,0.34689912436483566,-9.808814433819702,,,,,,,,,,
acc,1778674323.0,122.0,-0.00651091856589322,0.3469772668921542,-9.808741182719167,,,,,,,,,,
acc,1778674323.0,122.0,-0.006095397644607426,0.34705469210158385,-9.80898915557077,,,,,,,,,,
acc,1778674323.0,122.0,-0.005683690347618141,0.34713140670742,-9.808914320489043,,,,,,,,,,
acc,1778674323.0,122.0,-0.0056318743158579095,0.347207417357619,-9.808840172115891,,,,,,,,,,
acc,1778674323.0,122.0,-0.005580533679525794,0.34728273063454634,-9.808766704030218,,,,,,,,,,
acc,1778674323.0,122.0,-0.005529663995670596,0.347357353055714,-9.809014385580996,,,,,,,,,,
acc,1778674323.0,122.0,-0.005799709351849346,0.3474312910745074,-9.808939337909173,,,,,,,,,,
acc,1778674323.0,122.0,-0.00642331960158786,0.34750455108090134,-9.808829377038412,,,,,,,,,,
acc,1778674323.0,122.0,-0.006685190455021742,0.3475771394021667,-9.80875602379275,,,,,,,,,,
acc,1778674323.0,122.0,-0.00730066350663473,0.34764906230356646,-9.809039345757165,,,,,,,,,,
acc,1778674323.0,122.0,-0.007554511301302805,0.3477203259890421,-9.809284475233907,,,,,,,,,,
acc,1778674323.0,122.0,-0.007806032791274918,0.34747056471472615,-9.809527358302113,,,,,,,,,,
acc,1778674323.0,122.0,-0.008411197348417197,0.3475434476132124,-9.809803607923508,,,,,,,,,,
acc,1778674323.0,122.0,-0.009366738640421318,0.3476156628017226,-9.809721396703361,,,,,,,,,,
acc,1778674323.0,122.0,-0.009957623593878908,0.3476872164944946,-9.809995851173781,,,,,,,,,,
acc,1778674323.0,122.0,-0.010898983242754958,0.3474378060988657,-9.810232205162196,,,,,,,,,,
acc,1778674323.0,122.0,-0.01183172243962796,0.3475109733364973,-9.810466394751261,,,,,,,,,,
acc,1778674323.0,122.0,-0.012755921312777972,0.3475834706420649,-9.810698440059364,,,,,,,,,,
acc,1778674323.0,122.0,-0.01367165921368511,0.34733503990610776,-9.810608096675793,,,,,,,,,,
acc,1778674323.0,122.0,-0.014579014725413127,0.34708888323034925,-9.810838830332008,,,,,,,,,,
acc,1778674323.0,122.0,-0.015478065670880559,0.34716521555420193,-9.81106745219972,,,,,,,,,,
acc,1778674323.0,122.0,-0.01636888912102148,0.34692062704270726,-9.810973759583021,,,,,,,,,,
acc,1778674323.0,122.0,-0.016895786006351346,0.34667827655281735,-9.810845348549776,,,,,,,,,,
acc,1778674323.0,122.0,-0.017417862306942145,0.3464381433299214,-9.811109456362589,,,,,,,,,,
acc,1778674323.0,122.0,-0.017935162710968795,0.34620020681933145,-9.810979820050244,,,,,,,,,,
acc,1778674323.0,122.0,-0.018803463460855447,0.3462846163782398,-9.810886940871148,,,,,,,,,,
acc,1778674323.0,122.0,-0.01930810494800109,0.346368253951723,-9.810759341155967,,,,,,,,,,
acc,1778674323.0,122.0,-0.019808131664921097,0.3464511266887952,-9.810632908295634,,,,,,,,,,
acc,1778674323.0,122.0,-0.01994788633594757,0.346533241669876,-9.810543198755992,,,,,,,,,,
acc,1778674323.0,122.0,-0.019766251548588742,0.34661460590751236,-9.81077443023818,,,,,,,,,,
acc,1778674323.0,122.0,-0.01990637726156293,0.34637511717139,-9.810683438722522,,,,,,,,,,
acc,1778674323.0,122.0,-0.019725133527906134,0.3461378175058201,-9.810593278923841,,,,,,,,,,
acc,1778674323.0,122.0,-0.019545546295225386,0.3459026866717993,-9.810503943152515,,,,,,,,,,
acc,1778674323.0,122.0,-0.019367600253106975,0.34566970462363567,-9.81041542379237,,,,,,,,,,
acc,1778674323.0,122.0,-0.019191280237247043,0.3454388515069366,-9.809936529329653,,,,,,,,,,
acc,1778674323.0,122.0,-0.019016571227934164,0.3452101076566223,-9.809462010445685,,,,,,,,,,
acc,1778674324.0,123.0,-0.018487866627340088,0.34530349706797087,-9.809703028383742,,,,,,,,,,
acc,1778674324.0,123.0,-0.017963991770066648,0.3453960333623139,-9.809621811404103,,,,,,,,,,
acc,1778674324.0,123.0,-0.017444902081933927,0.34516770128686913,-9.809541336275268,,,,,,,,,,
acc,1778674324.0,123.0,-0.016930553412394477,0.3449414546441345,-9.80907047494136,,,,,,,,,,
acc,1778674324.0,123.0,-0.01606534560829484,0.34503727770836295,-9.808995023080277,,,,,,,,,,
acc,1778674324.0,123.0,-0.01556358442063324,0.345132225747465,-9.808920260221104,,,,,,,,,,
acc,1778674324.0,123.0,-0.014710869339580749,0.34522630682841077,-9.808846180011844,,,,,,,,,,
acc,1778674324.0,123.0,-0.014221464801595125,0.34499955354237,-9.808772776160684,,,,,,,,,,
acc,1778674324.0,123.0,-0.013736528184993784,0.3450948367219034,-9.808700042435381,,,,,,,,,,
acc,1778674324.0,123.0,-0.01361151452680078,0.3455447463013248,-9.808592424863225,,,,,,,,,,
acc,1778674324.0,123.0,-0.01313215544659675,0.3456350626807699,-9.808521336433467,,,,,,,,,,
acc,1778674324.0,123.0,-0.013012648522151055,0.3457245547378044,-9.808450896831598,,,,,,,,,,
acc,1778674324.0,123.0,-0.012538764565877344,0.34581323006070314,-9.808381100084853,,,,,,,,,,
acc,1778674324.0,123.0,-0.012424663627644503,0.3459010961661433,-9.80831194027682,,,,,,,,,,
acc,1778674324.0,123.0,-0.012311603851960673,0.3459881604999264,-9.80856332705146,,,,,,,,,,
acc,1778674324.0,123.0,-0.012199575660986468,0.34607443043769254,-9.80881242011243,,,,,,,,,,
acc,1778674324.0,123.0,-0.012088569567076803,0.34584001353238547,-9.808739340802132,,,,,,,,,,
acc,1778674324.0,123.0,-0.011978576171875593,0.3459276272825519,-9.808666928187874,,,,,,,,,,
acc,1778674324.0,123.0,-0.012189461634085946,0.34601444179699326,-9.808595176140571,,,,,,,,,,
acc,1778674324.0,123.0,-0.01275383953380347,0.3464558713794385,-9.808843955768932,,,,,,,,,,
acc,1778674324.0,123.0,-0.013313069740500267,0.34689327468094355,-9.809090466277334,,,,,,,,,,
acc,1778674324.0,123.0,-0.0135117994653458,0.3469712977077426,-9.809014865708761,,,,,,,,,,
acc,1778674324.0,123.0,-0.013708716816961087,0.34704860918097197,-9.808939954601449,,,,,,,,,,
acc,1778674324.0,123.0,-0.01390383844015309,0.3471252156355284,-9.808865726623397,,,,,,,,,,
acc,1778674324.0,123.0,-0.014097180823723259,0.3468812813417129,-9.808792175501951,,,,,,,,,,
acc,1778674324.0,123.0,-0.014644130140077006,0.3469594068361431,-9.80907466486128,,,,,,,,,,
acc,1778674324.0,123.0,-0.015186092651823534,0.3470368200222041,-9.809354578626861,,,,,,,,,,
acc,1778674324.0,123.0,-0.015367758599175756,0.34711352743687574,-9.809596407612014,,,,,,,,,,
acc,1778674324.0,123.0,-0.01625845643343365,0.3471895355559994,-9.809516215552637,,,,,,,,,,
acc,1778674324.0,123.0,-0.016785702152516308,0.34726485079488056,-9.80940122307027,,,,,,,,,,
acc,1778674324.0,123.0,-0.017308141841533432,0.34733947950888466,-9.8092872787848,,,,,,,,,,
acc,1778674324.0,123.0,-0.01782581957585209,0.34741342799402647,-9.809174373083374,,,,,,,,,,
acc,1778674324.0,123.0,-0.01833877901943197,0.34716691000515837,-9.809453347857268,,,,,,,,,,
acc,1778674324.0,123.0,-0.018491747835308405,0.34692263874365187,-9.809694251267043,,,,,,,,,,
acc,1778674324.0,123.0,-0.01864332259065101,0.34668059361512066,-9.809613178089156,,,,,,,,,,
acc,1778674324.0,123.0,-0.019148819288984938,0.3464407542171413,-9.809497316128187,,,,,,,,,,
acc,1778674324.0,123.0,-0.01929441247603188,0.3465228705560957,-9.809418036942969,,,,,,,,,,
acc,1778674324.0,123.0,-0.01979397032718127,0.3466042386537469,-9.809303953745177,,,,,,,,,,
acc,1778674324.0,123.0,-0.01993369094414474,0.346684865364599,-9.809546195522742,,,,,,,,,,
acc,1778674324.0,123.0,-0.020072138555975446,0.34676475747937663,-9.809466475660079,,,,,,,,,,
acc,1778674324.0,123.0,-0.02020932482108662,0.34652417220126636,-9.809387482096598,,,,,,,,,,
acc,1778674324.0,123.0,-0.020025525801413663,0.34628577870733507,-9.80891841531023,,,,,,,,,,
acc,1778674324.0,123.0,-0.019843401154006693,0.34604955693039846,-9.808844408569588,,,,,,,,,,
acc,1778674324.0,123.0,-0.01966293555099005,0.3458154869896876,-9.80877107598519,,,,,,,,,,
acc,1778674324.0,123.0,-0.019484113806821645,0.3455835491890451,-9.808698411386356,,,,,,,,,,
acc,1778674324.0,123.0,-0.01930692087691701,0.3453537240151402,-9.808626408659688,,,,,,,,,,
acc,1778674324.0,123.0,-0.019131341856288134,0.34512599213570344,-9.80855506174851,,,,,,,,,,
acc,1778674324.0,123.0,-0.018957361978196825,0.34522005115471244,-9.80848436465233,,,,,,,,,,
acc,1778674324.0,123.0,-0.018784966612822432,0.3453132535360838,-9.80802355787823,,,,,,,,,,
acc,1778674324.0,123.0,-0.01861414126594373,0.34540560711585144,-9.807957696038422,,,,,,,,,,
acc,1778674324.0,123.0,-0.018444871577634792,0.3454971196574451,-9.807892433983936,,,,,,,,,,
acc,1778674324.0,123.0,-0.01792193341159248,0.3452680990217557,-9.80782776622957,,,,,,,,,,
acc,1778674324.0,123.0,-0.017758962548338197,0.3450411638520042,-9.807763687340914,,,,,,,,,,
acc,1778674324.0,123.0,-0.017242274635747335,0.3448162950803789,-9.808019883754062,,,,,,,,,,
acc,1778674324.0,123.0,-0.017085488022172354,0.34459347381550187,-9.807954059488189,,,,,,,,,,
acc,1778674324.0,123.0,-0.016930128952471833,0.34469236543793225,-9.807888834552996,,,,,,,,,,
acc,1778674324.0,123.0,-0.016776184378600605,0.3447903566830126,-9.807824203470476,,,,,,,,,,
acc,1778674324.0,123.0,-0.01662364137313184,0.34488745577951396,-9.807760160813263,,,,,,,,,,
acc,1778674324.0,123.0,-0.01647248712810552,0.34498367088016246,-9.808016374233244,,,,,,,,,,
acc,1778674324.0,123.0,-0.016322708953888872,0.3450790100623647,-9.807559884605912,,,,,,,,,,
acc,1778674324.0,123.0,-0.01617429427804861,0.3451734813289255,-9.807498247412957,,,,,,,,,,
acc,1778674324.0,123.0,-0.015672062154946945,0.3452670926087586,-9.807437171313017,,,,,,,,,,
acc,1778674324.0,123.0,-0.01552956653229843,0.3453598517575895,-9.807376651180675,,,,,,,,,,
acc,1778674324.0,123.0,-0.015388367987755997,0.3454517665586513,-9.80763633781617,,,,,,,,,,
acc,1778674324.0,123.0,-0.015248454675103247,0.3455428447233735,-9.807574008073082,,,,,,,,,,
acc,1778674324.0,123.0,-0.015109814857380685,0.34563309389206365,-9.80751224565708,,,,,,,,,,
acc,1778674324.0,123.0,-0.01497243690584935,0.3460776720843635,-9.80741553216111,,,,,,,,,,
acc,1778674324.0,123.0,-0.015155943449218483,0.3461630569153473,-9.807355211787643,,,,,,,,,,
acc,1778674324.0,123.0,-0.01569293263114533,0.34624766463895523,-9.807259927854115,,,,,,,,,,
acc,1778674324.0,123.0,-0.015869885202830072,0.34633150234940346,-9.807201023318473,,,,,,,,,,
acc,1778674324.0,123.0,-0.015725602115948725,0.3464145770755624,-9.807142654857051,,,,,,,,,,
acc,1778674324.0,123.0,-0.015902254479601124,0.3464968957815742,-9.807404449073106,,,,,,,,,,
acc,1778674324.0,123.0,-0.01607729926404593,0.34657846536746423,-9.807663860898517,,,,,,,,,,
acc,1778674324.0,123.0,-0.016250751140143994,0.34701442047839043,-9.807565775175085,,,,,,,,,,
acc,1778674324.0,123.0,-0.016422624643748353,0.3470912836931861,-9.807504092671504,,,,,,,,,,
acc,1778674324.0,123.0,-0.016948065122147554,0.34716744748783607,-9.8077981023957,,,,,,,,,,
acc,1778674324.0,123.0,-0.017113596401805837,0.3472429182438393,-9.807734308783363,,,,,,,,,,
acc,1778674324.0,123.0,-0.017632746699985602,0.3476728183968405,-9.807671095635381,,,,,,,,,,
acc,1778674324.0,123.0,-0.01814717331087125,0.3477436936191087,-9.807963580067367,,,,,,,,,,
acc,1778674324.0,123.0,-0.018656919324045257,0.34781392397115407,-9.808253403280174,,,,,,,,,,
acc,1778674324.0,123.0,-0.01916202743307408,0.3478835153350908,-9.808149963601625,,,,,,,,,,
acc,1778674324.0,123.0,-0.01966253993922733,0.3476328679130584,-9.808438088081564,,,,,,,,,,
acc,1778674324.0,123.0,-0.02015849875515985,0.34770410418438175,-9.808723591189189,,,,,,,,,,
acc,1778674324.0,123.0,-0.020294836222004974,0.34777469235827385,-9.80897098863883,,,,,,,,,,
acc,1778674324.0,123.0,-0.020785040019997633,0.347844638344723,-9.808861028666236,,,,,,,,,,
acc,1778674324.0,123.0,-0.02091567997641792,0.3479139479994548,-9.808787576746928,,,,,,,,,,
acc,1778674324.0,123.0,-0.02104513146380138,0.34798262712444006,-9.808714793040732,,,,,,,,,,
acc,1778674324.0,123.0,-0.021173405317759072,0.3477310892425887,-9.808642671455358,,,,,,,,,,
acc,1778674324.0,123.0,-0.021300512274468806,0.3474818395812362,-9.808571205954422,,,,,,,,,,
acc,1778674324.0,123.0,-0.021426462971604908,0.34723485728049575,-9.808819978632563,,,,,,,,,,
acc,1778674324.0,123.0,-0.02123169098280129,0.34699012167183524,-9.809066488332329,,,,,,,,,,
acc,1778674324.0,123.0,-0.021358265702142065,0.3467476122762896,-9.808991171606811,,,,,,,,,,
acc,1778674324.0,123.0,-0.02116411603068279,0.346507308802691,-9.808916539979773,,,,,,,,,,
acc,1778674324.0,123.0,-0.021291303484349905,0.34626919114591626,-9.808842587207115,,,,,,,,,,
acc,1778674324.0,123.0,-0.021097764802992917,0.34603323938515135,-9.808769307101985,,,,,,,,,,
acc,1778674324.0,123.0,-0.020905986500734934,0.34579943378217315,-9.809016270031337,,,,,,,,,,
acc,1778674324.0,123.0,-0.02103551813352696,0.34556775477964774,-9.808941411998838,,,,,,,,,,
acc,1778674324.0,123.0,-0.020844307798000346,0.3453381829994453,-9.808867234833036,,,,,,,,,,
acc,1778674324.0,123.0,-0.02065483657576983,0.3451106992409717,-9.808793732330008,,,,,,,,,,
acc,1778674324.0,123.0,-0.020467088621153748,0.3448852844795161,-9.80872089834266,,,,,,,,,,
acc,1778674324.0,123.0,-0.019925985051283613,0.34498148763638065,-9.8086487267802,,,,,,,,,,
acc,1778674324.0,123.0,-0.019744864087159374,0.3447572497192261,-9.808577211607615,,,,,,,,,,
acc,1778674324.0,123.0,-0.01956539036659841,0.34453505118203764,-9.808506346845146,,,,,,,,,,
acc,1778674324.0,123.0,-0.019387548883785237,0.3446344363532177,-9.808436126567786,,,,,,,,,,
acc,1778674324.0,123.0,-0.019211324770266654,0.34473291767158654,-9.808366544904763,,,,,,,,,,
acc,1778674324.0,123.0,-0.01903670329367641,0.3448305033701992,-9.807907029000202,,,,,,,,,,
acc,1778674324.0,123.0,-0.0188636698564722,0.3449272016067658,-9.80784225721317,,,,,,,,,,
acc,1778674324.0,123.0,-0.01869220999468483,0.3447034636439263,-9.807778074464267,,,,,,,,,,
acc,1778674324.0,123.0,-0.018522309376679483,0.34448176033819966,-9.807714475388714,,,,,,,,,,
acc,1778674324.0,123.0,-0.01835395380192888,0.3442620731593188,-9.807651454670815,,,,,,,,,,
acc,1778674324.0,123.0,-0.018187129199798258,0.3443639362854593,-9.807589007043493,,,,,,,,,,
acc,1778674324.0,123.0,-0.018021821628342028,0.3444648731124511,-9.807527127287845,,,,,,,,,,
acc,1778674324.0,123.0,-0.0181775579960881,0.34424534226319914,-9.807785360044894,,,,,,,,,,
acc,1778674324.0,123.0,-0.018012338804128135,0.34434735616751505,-9.80772169611891,,,,,,,,,,
acc,1778674324.0,123.0,-0.018168160081416803,0.34480348274349176,-9.808013660499391,,,,,,,,,,
acc,1778674324.0,123.0,-0.018322564458056835,0.3449004228224793,-9.80794792203934,,,,,,,,,,
acc,1778674324.0,123.0,-0.018475564834782576,0.34499648142475253,-9.807882781339496,,,,,,,,,,
acc,1778674324.0,123.0,-0.018627173994417583,0.345091666575783,-9.80813777637304,,,,,,,,,,
acc,1778674324.0,123.0,-0.01877740460296449,0.34518598622769825,-9.808390452788887,,,,,,,,,,
acc,1778674324.0,123.0,-0.01860673728367011,0.34527944825995954,-9.808321290679626,,,,,,,,,,
acc,1778674324.0,123.0,-0.01875715253252926,0.3453720604800332,-9.808572297281932,,,,,,,,,,
acc,1778674324.0,123.0,-0.019261240104784017,0.3458188615082855,-9.808821021608223,,,,,,,,,,
acc,1778674324.0,123.0,-0.01976074431268273,0.3462616000441856,-9.808747946857132,,,,,,,,,,
acc,1778674324.0,123.0,-0.01990066938272397,0.3467003130676549,-9.808640035500911,,,,,,,,,,
acc,1778674324.0,123.0,-0.020394358514020938,0.34713503722085737,-9.80856860619951,,,,,,,,,,
acc,1778674324.0,123.0,-0.020883558966109553,0.3475658088113151,-9.808497826341654,,,,,,,,,,
acc,1778674325.0,124.0,-0.021013277651711352,0.3476376389608054,-9.808427690016153,,,,,,,,,,
acc,1778674325.0,124.0,-0.020822293783729767,0.3480638397478679,-9.808322690812247,,,,,,,,,,
acc,1778674325.0,124.0,-0.02095256846337392,0.34781161174918146,-9.808573677926356,,,,,,,,,,
acc,1778674325.0,124.0,-0.021081658716106826,0.347881207197438,-9.808822383124339,,,,,,,,,,
acc,1778674325.0,124.0,-0.02120957532127049,0.34763064062948174,-9.808749297897162,,,,,,,,,,
acc,1778674325.0,124.0,-0.02169135739874717,0.3477018804341849,-9.808321857781323,,,,,,,,,,
acc,1778674325.0,124.0,-0.021813731947973404,0.3477724725608236,-9.808253322054153,,,,,,,,,,
acc,1778674325.0,124.0,-0.022290020310554336,0.3478424229033717,-9.80783039212976,,,,,,,,,,
acc,1778674325.0,124.0,-0.022761978563092086,0.3475922117426132,-9.80741130721452,,,,,,,,,,
acc,1778674325.0,124.0,-0.02393968578692205,0.3476637999948139,-9.807351047615109,,,,,,,,,,
acc,1778674325.0,124.0,-0.025106686226145036,0.3474152136229065,-9.80690081281825,,,,,,,,,,
acc,1778674325.0,124.0,-0.025908054840072012,0.3471688871837843,-9.80585114297561,,,,,,,,,,
acc,1778674325.0,124.0,-0.027057159690711843,0.34724432221838547,-9.804811015749456,,,,,,,,,,
acc,1778674325.0,124.0,-0.02819581803641336,0.34664453866907274,-9.80441937778297,,,,,,,,,,
acc,1778674325.0,124.0,-0.02932412492572262,0.3467247388005338,-9.803392268318138,,,,,,,,,,
acc,1778674325.0,124.0,-0.030797184281670296,0.34612968042942255,-9.80237449615695,,,,,,,,,,
acc,1778674325.0,124.0,-0.03225685236706708,0.3458950404814642,-9.800655949511414,,,,,,,,,,
acc,1778674325.0,124.0,-0.03402276005242749,0.34598205170529983,-9.798598017674491,,,,,,,,,,
acc,1778674325.0,124.0,-0.036127630749182175,0.3460682719399213,-9.796523285801472,,,,,,,,,,
acc,1778674325.0,124.0,-0.038923388736168275,0.34583419174878827,-9.795567950556947,,,,,,,,,,
acc,1778674325.0,124.0,-0.04204873735457735,0.34560223947090474,-9.794621299817141,,,,,,,,,,
acc,1778674325.0,124.0,-0.045820195043834826,0.345372395748169,-9.794038268429519,,,,,,,,,,
acc,1778674325.0,124.0,-0.05303645678065293,0.3451446413989691,-9.790939974198054,,,,,,,,,,
acc,1778674325.0,124.0,-0.06334668702216098,0.3438539386607528,-9.789680386428072,,,,,,,,,,
acc,1778674325.0,124.0,-0.07494772389653354,0.3432849828208145,-9.789745772368564,,,,,,,,,,
acc,1778674325.0,124.0,-0.088182833120928,0.3430762006594234,-9.788142032145892,,,,,,,,,,
acc,1778674325.0,124.0,-0.10406668072463143,0.3418043042374554,-9.787617891424807,,,,,,,,,,
acc,1778674325.0,124.0,-0.1219006639679023,0.3408989789030054,-9.786708007603755,,,,,,,,,,
acc,1778674325.0,124.0,-0.142377070115124,0.3400018830391509,-9.785841892833256,,,,,,,,,,
acc,1778674325.0,124.0,-0.1647263609419642,0.33840292577233555,-9.786297170699818,,,,,,,,,,
acc,1778674325.0,124.0,-0.18932202359401185,0.3368185029707702,-9.785789800291896,,,,,,,,,,
acc,1778674325.0,124.0,-0.215433621979448,0.33560348911329885,-9.786600547459594,,,,,,,,,,
acc,1778674325.0,124.0,-0.24304737450947686,0.33301501149992485,-9.78672941995159,,,,,,,,,,
acc,1778674325.0,124.0,-0.2732146321439882,0.3311600643655208,-9.787212126409926,,,,,,,,,,
acc,1778674325.0,124.0,-0.30726117683053233,0.3293219782659219,-9.787335440411113,,,,,,,,,,
acc,1778674325.0,124.0,-0.3438027472218096,0.3275005998508807,-9.788842134277974,,,,,,,,,,
acc,1778674325.0,124.0,-0.3800121667438702,0.325695777167223,-9.790690136345296,,,,,,,,,,
acc,1778674325.0,124.0,-0.415892456198837,0.32390735964605627,-9.79110134709679,,,,,,,,,,
acc,1778674325.0,124.0,-0.45354109837785817,0.3221351980900971,-9.792928811460826,,,,,,,,,,
acc,1778674325.0,124.0,-0.4887530457107127,0.316545174186292,-9.795130155197853,,,,,,,,,,
acc,1778674325.0,124.0,-0.5340818329139968,0.3197033777965814,-9.79514601220029,,,,,,,,,,
acc,1778674325.0,124.0,-0.5751646569530012,0.31970890889528036,-9.797646693622308,,,,,,,,,,
acc,1778674325.0,124.0,-0.6189980238454088,0.3172649222372968,-9.800834645650216,,,,,,,,,,
acc,1778674325.0,124.0,-0.6585990171370232,0.3148431498721427,-9.801544148298207,,,,,,,,,,
acc,1778674325.0,124.0,-0.6808003248804327,0.3124433897882517,-9.80114671661813,,,,,,,,,,
acc,1778674325.0,124.0,-0.6979364222748746,0.31042044041252237,-9.799084432066923,,,,,,,,,,
acc,1778674325.0,124.0,-0.7117573250697711,0.3031974706253906,-9.802543294476386,,,,,,,,,,
acc,1778674325.0,124.0,-0.7181397451857368,0.30995587989234263,-9.816762507589079,,,,,,,,,,
acc,1778674325.0,124.0,-0.7164768236844837,0.31143446766367083,-9.812108871780888,,,,,,,,,,
acc,1778674325.0,124.0,-0.724555804822764,0.30104288470979457,-9.81583984106681,,,,,,,,,,
acc,1778674325.0,124.0,-0.7360757747504352,0.30643637760669706,-9.819856389399321,,,,,,,,,,
acc,1778674325.0,124.0,-0.7868240522248472,0.31039638992550833,-9.844745418191465,,,,,,,,,,
acc,1778674325.0,124.0,-0.8196810392242788,0.3070075960554989,-9.838098043200807,,,,,,,,,,
acc,1778674325.0,124.0,-0.8477310103250668,0.31511579140589435,-9.776487596485998,,,,,,,,,,
acc,1778674325.0,124.0,-0.9190477875859642,0.27788908331467216,-9.818845666294903,,,,,,,,,,
acc,1778674325.0,124.0,-0.9813386303749723,0.2845224251937198,-9.805795381065316,,,,,,,,,,
acc,1778674325.0,124.0,-1.0221899554024552,0.28971102700121687,-9.821440330470484,,,,,,,,,,
acc,1778674325.0,124.0,-1.045275551547177,0.330351330038314,-9.885008536578386,,,,,,,,,,
acc,1778674325.0,124.0,-1.024274785755537,0.3253612631051904,-9.894360263444314,,,,,,,,,,
acc,1778674325.0,124.0,-1.0048493464647628,0.3166181781909428,-9.877499892349915,,,,,,,,,,
acc,1778674325.0,124.0,-1.049995172154067,0.32151508078207286,-9.860828266889465,,,,,,,,,,
acc,1778674325.0,124.0,-1.1170238644052035,0.3131264628075338,-9.873523591145355,,,,,,,,,,
acc,1778674325.0,124.0,-1.1778700638636805,0.31702562745889945,-9.876341405078414,,,,,,,,,,
acc,1778674325.0,124.0,-1.255557574803837,0.32294826974148433,-9.888895724822094,,,,,,,,,,
acc,1778674325.0,124.0,-1.327675705685378,0.306559463438139,-9.863032968249229,,,,,,,,,,
acc,1778674325.0,124.0,-1.400877808586359,0.29937174322272864,-9.891327569884744,,,,,,,,,,
acc,1778674325.0,124.0,-1.509268118523714,0.3110280652687906,-9.895048527745587,,,,,,,,,,
acc,1778674325.0,124.0,-1.6121650046141411,0.316685703491933,-9.906722833992879,,,,,,,,,,
acc,1778674325.0,124.0,-1.692898636029246,0.3198425218207594,-9.914457195564825,,,,,,,,,,
acc,1778674325.0,124.0,-1.7377195799993506,0.3125341179934129,-9.906111481984544,,,,,,,,,,
acc,1778674325.0,124.0,-1.8005923311015106,0.31292429249379483,-9.907603668572348,,,,,,,,,,
acc,1778674325.0,124.0,-1.8750696035595085,0.3147308551902963,-9.906987897201441,,,,,,,,,,
acc,1778674325.0,124.0,-1.9164955197060076,0.3126871798262163,-9.90673270095425,,,,,,,,,,
acc,1778674325.0,124.0,-1.9530366536568822,0.31240149245513843,-9.907544777442713,,,,,,,,,,
acc,1778674325.0,124.0,-1.990275134447382,0.3138578142498658,-9.90870445156052,,,,,,,,,,
acc,1778674325.0,124.0,-2.027175177741484,0.3135614891619614,-9.908398160728057,,,,,,,,,,
acc,1778674325.0,124.0,-2.065834256681724,0.31536225364640513,-9.907775171988554,,,,,,,,,,
acc,1778674325.0,124.0,-2.10204759412914,0.3122478990494595,-9.908187290074627,,,,,,,,,,
acc,1778674325.0,124.0,-2.1365473923318175,0.3129956489051893,-9.910015588708653,,,,,,,,,,
acc,1778674325.0,124.0,-2.1724730519893236,0.3130621363877772,-9.909342407183383,,,,,,,,,,
acc,1778674325.0,124.0,-2.2073622475509054,0.3127730432005486,-9.909420801453477,,,,,,,,,,
acc,1778674325.0,124.0,-2.241259895727941,0.3135160191009537,-9.908788521872005,,,,,,,,,,
acc,1778674325.0,124.0,-2.2765888760696726,0.31389726677569213,-9.906422586747645,,,,,,,,,,
acc,1778674325.0,124.0,-2.311916259038059,0.3139555606159402,-9.905107593984232,,,,,,,,,,
acc,1778674325.0,124.0,-2.3458931404356727,0.31433281341968733,-9.903804552128184,,,,,,,,,,
acc,1778674325.0,124.0,-2.3805906728429753,0.31680102006794886,-9.900063995022892,,,,,,,,,,
acc,1778674325.0,124.0,-2.4163927864615062,0.3171524143154007,-9.898771283771168,,,,,,,,,,
acc,1778674325.0,124.0,-2.4553483263037363,0.31334736066687446,-9.893372571213977,,,,,,,,,,
acc,1778674325.0,124.0,-2.4887316404981155,0.3140851138696366,-9.895725964121466,,,,,,,,,,
acc,1778674325.0,124.0,-2.5297985831301664,0.31133737520062804,-9.894508181769732,,,,,,,,,,
acc,1778674325.0,124.0,-2.593459418108785,0.30375139575054494,-9.900614019571218,,,,,,,,,,
acc,1778674325.0,124.0,-2.657251655807337,0.30109756761715567,-9.918130168264694,,,,,,,,,,
acc,1778674325.0,124.0,-2.735444225895092,0.3068453402149249,-9.944255090104647,,,,,,,,,,
acc,1778674325.0,124.0,-2.8268058070168443,0.3156646820704392,-9.911642235820072,,,,,,,,,,
acc,1778674325.0,124.0,-2.9678149196767607,0.3024662499756002,-9.869918853018037,,,,,,,,,,
acc,1778674325.0,124.0,-3.045314996738359,0.28800336000012994,-9.866521748556096,,,,,,,,,,
acc,1778674325.0,124.0,-3.0204097748375127,0.2827238215728717,-9.85509753111535,,,,,,,,,,
acc,1778674325.0,124.0,-2.966125800261753,0.2882835657730565,-9.862626420282027,,,,,,,,,,
acc,1778674325.0,124.0,-2.9583046611763986,0.28786467658166276,-9.86036051683279,,,,,,,,,,
acc,1778674325.0,124.0,-2.9540333669140764,0.27768773364689536,-9.859819093773869,,,,,,,,,,
acc,1778674325.0,124.0,-2.951540281415795,0.2742413404315936,-9.85303500510331,,,,,,,,,,
acc,1778674325.0,124.0,-2.9504542535908995,0.2770738505195806,-9.856713372792644,,,,,,,,,,
acc,1778674325.0,124.0,-2.9709606432228397,0.27398801100685244,-9.850986942438281,,,,,,,,,,
acc,1778674325.0,124.0,-2.9964988217245074,0.2778877436091719,-9.846661466319198,,,,,,,,,,
acc,1778674325.0,124.0,-3.021485436669364,0.27859275393057914,-9.838896541630573,,,,,,,,,,
acc,1778674325.0,124.0,-3.059450068866386,0.2733987578470759,-9.84522371253556,,,,,,,,,,
acc,1778674325.0,124.0,-3.090822116957119,0.2724051741797291,-9.843790418666103,,,,,,,,,,
acc,1778674325.0,124.0,-3.120524655398686,0.271775599835839,-9.842015179613009,,,,,,,,,,
acc,1778674325.0,124.0,-3.1488923418192076,0.27289112265616644,-9.840256073609817,,,,,,,,,,
acc,1778674325.0,124.0,-3.1693347695306326,0.2698433033087268,-9.836383095300121,,,,,,,,,,
acc,1778674325.0,124.0,-3.2000631699521214,0.2706214143638694,-9.833645737917715,,,,,,,,,,
acc,1778674325.0,124.0,-3.229092418850572,0.2689786266333357,-9.831643206301875,,,,,,,,,,
acc,1778674325.0,124.0,-3.2637859326782808,0.2704745435984213,-9.837681301009734,,,,,,,,,,
acc,1778674325.0,124.0,-3.2939754676472752,0.2709274336535157,-9.838055923985003,,,,,,,,,,
acc,1778674325.0,124.0,-3.3214768141840025,0.2706662686721181,-9.837362224464934,,,,,,,,,,
acc,1778674325.0,124.0,-3.3466338956809154,0.26795814936832296,-9.834935449470976,,,,,,,,,,
acc,1778674325.0,124.0,-3.367728638351282,0.26495516646797385,-9.830471884240458,,,,,,,,,,
acc,1778674325.0,124.0,-3.4015172280302166,0.2682270121234965,-9.836840085142109,,,,,,,,,,
acc,1778674325.0,124.0,-3.431520010842565,0.26763540898184807,-9.837541825778748,,,,,,,,,,
acc,1778674325.0,124.0,-3.4608951594885076,0.268788550027247,-9.836568820576112,,,,,,,,,,
acc,1778674325.0,124.0,-3.4955764447813027,0.2678368665353393,-9.835853132281233,,,,,,,,,,
acc,1778674325.0,124.0,-3.5226301045035444,0.2679587559043774,-9.832765634019339,,,,,,,,,,
acc,1778674325.0,124.0,-3.544219811627949,0.26946393501262195,-9.834959796041279,,,,,,,,,,
acc,1778674325.0,124.0,-3.566287760810818,0.26644727627417897,-9.838482911109452,,,,,,,,,,
acc,1778674325.0,124.0,-3.591669398004608,0.26448745092303244,-9.839524698801053,,,,,,,,,,
acc,1778674325.0,124.0,-3.624452292600373,0.2646397772775315,-9.840947491406677,,,,,,,,,,
acc,1778674326.0,125.0,-3.6705327136876083,0.26546516963140987,-9.843386772582083,,,,,,,,,,
acc,1778674326.0,125.0,-3.705048240766832,0.26560861106694633,-9.842609129241087,,,,,,,,,,
acc,1778674326.0,125.0,-3.7333220626480492,0.2653957810946646,-9.841554574890257,,,,,,,,,,
acc,1778674326.0,125.0,-3.7752538575155583,0.263445514144206,-9.839835163352042,,,,,,,,,,
acc,1778674326.0,125.0,-3.806723383007381,0.26360730863742093,-9.839480266916466,,,,,,,,,,
acc,1778674326.0,125.0,-3.8173540404174124,0.261673295225569,-9.835649873725501,,,,,,,,,,
acc,1778674326.0,125.0,-3.8362654387835824,0.26185119427715764,-9.835333010410801,,,,,,,,,,
acc,1778674326.0,125.0,-3.8637017873004496,0.2602881167191492,-9.83150480273042,,,,,,,,,,
acc,1778674326.0,125.0,-3.8717558251505206,0.25767432384248756,-9.830551158355227,,,,,,,,,,
acc,1778674326.0,125.0,-3.88981786722591,0.2568236429105399,-9.827476359278872,,,,,,,,,,
acc,1778674326.0,125.0,-3.9296530180630813,0.25633566870764307,-9.81892744076564,,,,,,,,,,
acc,1778674326.0,125.0,-3.9652924642739915,0.25237340386183443,-9.813189489065357,,,,,,,,,,
acc,1778674326.0,125.0,-4.0006080359034595,0.2491570980980727,-9.809562510725383,,,,,,,,,,
acc,1778674326.0,125.0,-4.024456582061888,0.24838381636172716,-9.821693723620433,,,,,,,,,,
acc,1778674326.0,125.0,-4.025476740183222,0.2465881475919617,-9.82530187844566,,,,,,,,,,
acc,1778674326.0,125.0,-4.001426661713369,0.24445383040029542,-9.827173382731905,,,,,,,,,,
acc,1778674326.0,125.0,-3.983487662174177,0.24407826463302265,-9.827607995568426,,,,,,,,,,
acc,1778674326.0,125.0,-4.004013051185467,0.24093734293980376,-9.82637029311789,,,,,,,,,,
acc,1778674326.0,125.0,-4.024706882244763,0.24094870797844425,-9.824078930216949,,,,,,,,,,
acc,1778674326.0,125.0,-4.045567624686285,0.23957558140259738,-9.822127861474858,,,,,,,,,,
acc,1778674326.0,125.0,-4.0630795585956685,0.23821493308399452,-9.820939959234368,,,,,,,,,,
acc,1778674326.0,125.0,-4.088099718806466,0.23651167444957358,-9.821821686191457,,,,,,,,,,
acc,1778674326.0,125.0,-4.111153155762772,0.23379448180419304,-9.821630484299831,,,,,,,,,,
acc,1778674326.0,125.0,-4.132967683447645,0.23387075575247715,-9.826694582914133,,,,,,,,,,
acc,1778674326.0,125.0,-4.152844610865729,0.23465626826865246,-9.827488511787141,,,,,,,,,,
acc,1778674326.0,125.0,-4.183332005519135,0.23227540888865533,-9.822737697940342,,,,,,,,,,
acc,1778674326.0,125.0,-4.20310622694056,0.2309811007229283,-9.822183206486368,,,,,,,,,,
acc,1778674326.0,125.0,-4.229658166863203,0.2321123517126725,-9.823053634651234,,,,,,,,,,
acc,1778674326.0,125.0,-4.246207137598302,0.2297546109313257,-9.824235623685396,,,,,,,,,,
acc,1778674326.0,125.0,-4.266084431715283,0.22986759603498386,-9.82505189689804,,,,,,,,,,
acc,1778674326.0,125.0,-4.286491032436455,0.23033451982419545,-9.824476376215483,,,,,,,,,,
acc,1778674326.0,125.0,-4.296595549833554,0.23079720048273922,-9.824935495985029,,,,,,,,,,
acc,1778674326.0,125.0,-4.303484508725904,0.23264006122494543,-9.824077057403557,,,,,,,,,,
acc,1778674326.0,125.0,-4.313789564128722,0.2316974063350362,-9.823865360857912,,,,,,,,,,
acc,1778674326.0,125.0,-4.329573995612728,0.23108278819982772,-9.824684997985203,,,,,,,,,,
acc,1778674326.0,125.0,-4.3549766554543785,0.2322131134605902,-9.824822751218921,,,,,,,,,,
acc,1778674326.0,125.0,-4.371771188980303,0.23127433882942988,-9.826734096056956,,,,,,,,,,
acc,1778674326.0,125.0,-4.376947585865351,0.23101853959277163,-9.828983045842124,,,,,,,,,,
acc,1778674326.0,125.0,-4.390773701820229,0.23009062062611835,-9.82805232341175,,,,,,,,,,
acc,1778674326.0,125.0,-4.403089791627865,0.22846119517298347,-9.827769008304896,,,,,,,,,,
acc,1778674326.0,125.0,-4.416678343309348,0.22510722931409502,-9.82684931839242,,,,,,,,,,
acc,1778674326.0,125.0,-4.433267140705073,0.22387806336695304,-9.827677342463073,,,,,,,,,,
acc,1778674326.0,125.0,-4.447255894976822,0.22127568494055957,-9.827077964963802,,,,,,,,,,
acc,1778674326.0,125.0,-4.465306169490509,0.2193713990187471,-9.828258875681046,,,,,,,,,,
acc,1778674326.0,125.0,-4.48319241471344,0.2181943563189819,-9.830138993336668,,,,,,,,,,
acc,1778674326.0,125.0,-4.4998867041135675,0.21422375168629354,-9.830227184759352,,,,,,,,,,
acc,1778674326.0,125.0,-4.516074322172472,0.21309348706300835,-9.83137947735136,,,,,,,,,,
acc,1778674326.0,125.0,-4.531049926219685,0.20884976637103905,-9.831101422674479,,,,,,,,,,
acc,1778674326.0,125.0,-4.545215007649327,0.20670342517684545,-9.832600744061706,,,,,,,,,,
acc,1778674326.0,125.0,-4.561345675896466,0.2056414997568813,-9.831921123497715,,,,,,,,,,
acc,1778674326.0,125.0,-4.566538706200876,0.20597360521135472,-9.823970819634264,,,,,,,,,,
acc,1778674326.0,125.0,-4.5755182179375735,0.20527327635431133,-9.821665770830084,,,,,,,,,,
acc,1778674326.0,125.0,-4.594142269480126,0.20805801003778363,-9.83297697466124,,,,,,,,,,
acc,1778674326.0,125.0,-4.615720802961053,0.21184684495749231,-9.835169189002107,,,,,,,,,,
acc,1778674326.0,125.0,-4.62666716178906,0.2114126146055429,-9.83521166993569,,,,,,,,,,
acc,1778674326.0,125.0,-4.642412619258668,0.21169227659537931,-9.836283171594934,,,,,,,,,,
acc,1778674326.0,125.0,-4.661138716412955,0.21125945093986995,-9.836989963047673,,,,,,,,,,
acc,1778674326.0,125.0,-4.677955300080755,0.21015612507640818,-9.837690331666831,,,,,,,,,,
acc,1778674326.0,125.0,-4.690430433324944,0.21009223187992307,-9.839094281926858,,,,,,,,,,
acc,1778674326.0,125.0,-4.70314717424718,0.21073885623982372,-9.839456058685682,,,,,,,,,,
acc,1778674326.0,125.0,-4.714363975158138,0.20999522537734536,-9.839779053298725,,,,,,,,,,
acc,1778674326.0,125.0,-4.724768908865009,0.20890338826160812,-9.839779643481794,,,,,,,,,,
acc,1778674326.0,125.0,-4.73472431696426,0.2088508789502303,-9.839070291591723,,,,,,,,,,
acc,1778674326.0,125.0,-4.7491328518269125,0.2077694409556018,-9.838331882142782,,,,,,,,,,
acc,1778674326.0,125.0,-4.76756358786844,0.2066978303016562,-9.8369612444708,,,,,,,,,,
acc,1778674326.0,125.0,-4.780253830233979,0.20631039053424668,-9.83663246781972,,,,,,,,,,
acc,1778674326.0,125.0,-4.792154319969787,0.20663641705235103,-9.836271184306272,,,,,,,,,,
acc,1778674326.0,125.0,-4.8053310447635385,0.20798888631761908,-9.836303651144652,,,,,,,,,,
acc,1778674326.0,125.0,-4.8197723979234395,0.20968402891689053,-9.837010255605124,,,,,,,,,,
acc,1778674326.0,125.0,-4.831313771792752,0.21278363972822098,-9.837036006360796,,,,,,,,,,
acc,1778674326.0,125.0,-4.841010924722403,0.21514514737009932,-9.837416486646736,,,,,,,,,,
acc,1778674326.0,125.0,-4.852714261645369,0.2157458541958506,-9.83640913175304,,,,,,,,,,
acc,1778674326.0,125.0,-4.86463071613547,0.21598613876559494,-9.837469749994531,,,,,,,,,,
acc,1778674326.0,125.0,-4.8771488276782735,0.21693416668648666,-9.83784628867322,,,,,,,,,,
acc,1778674326.0,125.0,-4.89026311065012,0.2230916108226232,-9.846561154836435,,,,,,,,,,
acc,1778674326.0,125.0,-4.90151888013499,0.22606938291410497,-9.844796268811866,,,,,,,,,,
acc,1778674326.0,125.0,-4.910578061748561,0.22550591078080176,-9.83640951885132,,,,,,,,,,
acc,1778674326.0,125.0,-4.923033600793755,0.2270418717497503,-9.835446818563822,,,,,,,,,,
acc,1778674326.0,125.0,-4.934666017493834,0.22962878310845644,-9.836196712205838,,,,,,,,,,
acc,1778674326.0,125.0,-4.946902663096646,0.2318372141930181,-9.836584819019432,,,,,,,,,,
acc,1778674326.0,125.0,-4.959383074464787,0.23228623683844984,-9.837324371336578,,,,,,,,,,
acc,1778674326.0,125.0,-4.97139511000853,0.23166627128668574,-9.83731177313819,,,,,,,,,,
acc,1778674326.0,125.0,-4.982588053750974,0.23037750764066542,-9.837334783924108,,,,,,,,,,
acc,1778674326.0,125.0,-4.994389219879163,0.2311947579559244,-9.837712548767746,,,,,,,,,,
acc,1778674326.0,125.0,-5.006083145938096,0.23129465544413544,-9.837696423136753,,,,,,,,,,
acc,1778674326.0,125.0,-5.018380741779071,0.23000926900892424,-9.837325471843519,,,,,,,,,,
acc,1778674326.0,125.0,-5.029146715892025,0.22735118715193503,-9.833124241048697,,,,,,,,,,
acc,1778674326.0,125.0,-5.039140416310941,0.2219130135407071,-9.834250202926658,,,,,,,,,,
acc,1778674326.0,125.0,-5.049717742298758,0.220357907812043,-9.838099181054384,,,,,,,,,,
acc,1778674326.0,125.0,-5.061618819895522,0.2167226228066394,-9.83772456993021,,,,,,,,,,
acc,1778674326.0,125.0,-5.0713174388799,0.21450474815628182,-9.8373533629844,,,,,,,,,,
acc,1778674326.0,125.0,-5.079508054206862,0.2126619999054201,-9.83663055722096,,,,,,,,,,
acc,1778674326.0,125.0,-5.087624239536237,0.21016155661676578,-9.835630345762658,,,,,,,,,,
acc,1778674326.0,125.0,-5.09325289241946,0.21045258626706123,-9.834284260522733,,,,,,,,,,
acc,1778674326.0,125.0,-5.106817170976437,0.2107409712652155,-9.832240472556817,,,,,,,,,,
acc,1778674326.0,125.0,-5.118518840657682,0.2096423603849695,-9.831919100627237,,,,,,,,,,
acc,1778674326.0,125.0,-5.125961058206986,0.2102930708758374,-9.830961703189839,,,,,,,,,,
acc,1778674326.0,125.0,-5.134720021783294,0.20919853026425753,-9.830048509389265,,,,,,,,,,
acc,1778674326.0,125.0,-5.145493691420935,0.20775896406674896,-9.830492485455935,,,,,,,,,,
acc,1778674326.0,125.0,-5.155104560854108,0.20736188257637989,-9.829832025945715,,,,,,,,,,
acc,1778674326.0,125.0,-5.162888756563185,0.20522907178011557,-9.829213071723057,,,,,,,,,,
acc,1778674326.0,125.0,-5.169927775436623,0.20520995173622672,-9.830019611338335,,,,,,,,,,
acc,1778674326.0,125.0,-5.178287203977771,0.20277722780818053,-9.830108887158007,,,,,,,,,,
acc,1778674326.0,125.0,-5.188310006021382,0.20278038807056423,-9.830161857253023,,,,,,,,,,
acc,1778674326.0,125.0,-5.197176822412686,0.20452285693497915,-9.832379644033965,,,,,,,,,,
acc,1778674326.0,125.0,-5.205963064183561,0.20557505157917702,-9.83454177378121,,,,,,,,,,
acc,1778674326.0,125.0,-5.213995032622897,0.20903147096035402,-9.836364787569806,,,,,,,,,,
acc,1778674326.0,125.0,-5.222308975570603,0.2093327696665766,-9.838490703474493,,,,,,,,,,
acc,1778674326.0,125.0,-5.230192405353371,0.20927635866886934,-9.839567898144185,,,,,,,,,,
acc,1778674326.0,125.0,-5.235554916431522,0.21060483456730447,-9.84095478140374,,,,,,,,,,
acc,1778674326.0,125.0,-5.241933603320199,0.20950746161014366,-9.841264155733107,,,,,,,,,,
acc,1778674326.0,125.0,-5.248573793954086,0.2080650890093821,-9.841961184852222,,,,,,,,,,
acc,1778674326.0,125.0,-5.255153643840245,0.21082444027499872,-9.844071748467512,,,,,,,,,,
acc,1778674326.0,125.0,-5.260999270601736,0.2121388482831153,-9.846518095545798,,,,,,,,,,
acc,1778674326.0,125.0,-5.267146739552575,0.21553562019949393,-9.847522343759106,,,,,,,,,,
acc,1778674326.0,125.0,-5.2725284110547,0.21680721686679835,-9.850292306170868,,,,,,,,,,
acc,1778674326.0,125.0,-5.278890580502203,0.2135591741305749,-9.852646631332572,,,,,,,,,,
acc,1778674326.0,125.0,-5.285549907278808,0.2086013106539781,-9.855015056715638,,,,,,,,,,
acc,1778674326.0,125.0,-5.292503681964053,0.20159419237978807,-9.855551625529108,,,,,,,,,,
acc,1778674326.0,125.0,-5.300104200426831,0.19536068321900255,-9.854663450290518,,,,,,,,,,
acc,1778674326.0,125.0,-5.308665062699725,0.18953879072331525,-9.854848251686368,,,,,,,,,,
acc,1778674326.0,125.0,-5.3182130272672286,0.18550913896200302,-9.85538633622401,,,,,,,,,,
acc,1778674326.0,125.0,-5.327319256119424,0.18219053589579498,-9.855209606175114,,,,,,,,,,
acc,1778674326.0,125.0,-5.337372146018915,0.17613335165632596,-9.854360042560186,,,,,,,,,,
acc,1778674326.0,125.0,-5.345949309940911,0.17048618171030272,-9.855967468939264,,,,,,,,,,
acc,1778674326.0,125.0,-5.355158465488579,0.1652097966518229,-9.854472073490461,,,,,,,,,,
acc,1778674326.0,125.0,-5.363928964225308,0.15792254623363713,-9.850505502869586,,,,,,,,,,
acc,1778674326.0,125.0,-5.372619763809349,0.15418019696099,-9.849379209216425,,,,,,,,,,
acc,1778674326.0,125.0,-5.381906027923869,0.1515012569274918,-9.848263150402115,,,,,,,,,,
acc,1778674326.0,125.0,-5.390788438092603,0.1474622876685014,-9.848151149873821,,,,,,,,,,
acc,1778674326.0,125.0,-5.399909600114985,0.14587379622371727,-9.846336325966645,,,,,,,,,,
acc,1778674326.0,125.0,-5.40791847474881,0.14398027175672645,-9.844537993695575,,,,,,,,,,
acc,1778674327.0,126.0,-5.413760264391564,0.14451772890705583,-9.843749901386833,,,,,,,,,,
acc,1778674327.0,126.0,-5.420933341717221,0.14611519816692262,-9.843714407867283,,,,,,,,,,
acc,1778674327.0,126.0,-5.431874878132636,0.14560385325121797,-9.841620424526607,,,,,,,,,,
acc,1778674327.0,126.0,-5.438208905520028,0.14545211732941216,-9.839509975174492,,,,,,,,,,
acc,1778674327.0,126.0,-5.4392673686662745,0.1442368642682701,-9.837809169653656,,,,,,,,,,
acc,1778674327.0,126.0,-5.439961241990824,0.14200325287748453,-9.836478781946784,,,,,,,,,,
acc,1778674327.0,126.0,-5.465709472414483,0.1397899387091013,-9.834770027015612,,,,,,,,,,
acc,1778674327.0,126.0,-5.481462134395606,0.1396910347199513,-9.832402360618573,,,,,,,,,,
acc,1778674327.0,126.0,-5.494302903525999,0.14271673739569582,-9.830766143237398,,,,,,,,,,
acc,1778674327.0,126.0,-5.502163943468633,0.14362064768440344,-9.829854728047456,,,,,,,,,,
acc,1778674327.0,126.0,-5.510627987943347,0.1452262684755833,-9.827886690132646,,,,,,,,,,
acc,1778674327.0,126.0,-5.5190151181755995,0.1447230015164596,-9.82799534799629,,,,,,,,,,
acc,1778674327.0,126.0,-5.526296622646704,0.14386933651465747,-9.828812952013235,,,,,,,,,,
acc,1778674327.0,126.0,-5.53592574191902,0.14440780156845304,-9.829232660608431,,,,,,,,,,
acc,1778674327.0,126.0,-5.545147882833877,0.14668070833386923,-9.833517690615823,,,,,,,,,,
acc,1778674327.0,126.0,-5.552191914486193,0.15067230469067516,-9.836663391716266,,,,,,,,,,
acc,1778674327.0,126.0,-5.560201346185449,0.15917120301455503,-9.841555336455363,,,,,,,,,,
acc,1778674327.0,126.0,-5.568137994817423,0.16411419187511628,-9.846757789450786,,,,,,,,,,
acc,1778674327.0,126.0,-5.570429537369388,0.17178099887577425,-9.863058926606346,,,,,,,,,,
acc,1778674327.0,126.0,-5.581396947702116,0.16997152054255873,-9.8565650604898,,,,,,,,,,
acc,1778674327.0,126.0,-5.591235285054283,0.16438034825018763,-9.860601716388903,,,,,,,,,,
acc,1778674327.0,126.0,-5.594026881474632,0.15848501263058495,-9.85970315454789,,,,,,,,,,
acc,1778674327.0,126.0,-5.598177473494413,0.15331768790724207,-9.856363490151343,,,,,,,,,,
acc,1778674327.0,126.0,-5.601260947263451,0.15064658741445666,-9.855467938247052,,,,,,,,,,
acc,1778674327.0,126.0,-5.603251496400596,0.14799975965554002,-9.853586626745496,,,,,,,,,,
acc,1778674327.0,126.0,-5.604549527217736,0.1415433439503839,-9.848634198673993,,,,,,,,,,
acc,1778674327.0,126.0,-5.60548079140078,0.1382693054583423,-9.846105044008917,,,,,,,,,,
acc,1778674327.0,126.0,-5.604664258652054,0.13364064643234122,-9.843953843395944,,,,,,,,,,
acc,1778674327.0,126.0,-5.606268919141625,0.13114835434172817,-9.839408417824764,,,,,,,,,,
acc,1778674327.0,126.0,-5.607184558909365,0.13318678886134322,-9.839376881630354,,,,,,,,,,
acc,1778674327.0,126.0,-5.60983122148657,0.13034364993763028,-9.835547486633772,,,,,,,,,,
acc,1778674327.0,126.0,-5.608265222522052,0.1338092634123018,-9.83278229095499,,,,,,,,,,
acc,1778674327.0,126.0,-5.606358491954231,0.13443914561821474,-9.82588911571726,,,,,,,,,,
acc,1778674327.0,126.0,-5.6055339834954925,0.13786754261418221,-9.82253724828735,,,,,,,,,,
acc,1778674327.0,126.0,-5.608550606997913,0.1419392240673711,-9.817512000031114,,,,,,,,,,
acc,1778674327.0,126.0,-5.608380617340427,0.14320516134223726,-9.813206855858027,,,,,,,,,,
acc,1778674327.0,126.0,-5.606827800350563,0.14548899574273083,-9.80514268820889,,,,,,,,,,
acc,1778674327.0,126.0,-5.607028428154586,0.15020134388350873,-9.800275507074529,,,,,,,,,,
acc,1778674327.0,126.0,-5.606552803095733,0.15487087016415094,-9.793677726332492,,,,,,,,,,
acc,1778674327.0,126.0,-5.607465863024932,0.15637425767456217,-9.787139900675124,,,,,,,,,,
acc,1778674327.0,126.0,-5.608015663786495,0.16027776556651954,-9.784850086503177,,,,,,,,,,
acc,1778674327.0,126.0,-5.608915430463388,0.1592827526255758,-9.777327574768979,,,,,,,,,,
acc,1778674327.0,126.0,-5.609097087656736,0.15968115346120554,-9.776191830969108,,,,,,,,,,
acc,1778674327.0,126.0,-5.611371399172418,0.15940149519948216,-9.771942701983958,,,,,,,,,,
acc,1778674327.0,126.0,-5.612915110518791,0.1566751111664393,-9.770110454714947,,,,,,,,,,
acc,1778674327.0,126.0,-5.615509698161273,0.1574521791102516,-9.769750227103353,,,,,,,,,,
acc,1778674327.0,126.0,-5.620175004280573,0.1568378138517016,-9.767973406687911,,,,,,,,,,
acc,1778674327.0,126.0,-5.62547235476509,0.15551909831089225,-9.767242133263021,,,,,,,,,,
acc,1778674327.0,126.0,-5.629337195569289,0.15385739504703372,-9.769286248693641,,,,,,,,,,
acc,1778674327.0,126.0,-5.628658847605302,0.1539501257582001,-9.76506437766516,,,,,,,,,,
acc,1778674327.0,126.0,-5.642575782074159,0.15510691798921838,-9.773056217108964,,,,,,,,,,
acc,1778674327.0,126.0,-5.648024544308964,0.1534489603260408,-9.773982594887274,,,,,,,,,,
acc,1778674327.0,126.0,-5.654488687864752,0.15528474538409606,-9.779124658586067,,,,,,,,,,
acc,1778674327.0,126.0,-5.66089409074975,0.15536450555402867,-9.782800129426944,,,,,,,,,,
acc,1778674327.0,126.0,-5.668270687413287,0.15650844506108877,-9.788571999870802,,,,,,,,,,
acc,1778674327.0,126.0,-5.678348995246766,0.15938132311460956,-9.79287155433999,,,,,,,,,,
acc,1778674327.0,126.0,-5.686951348244856,0.1615181618416569,-9.798871371779844,,,,,,,,,,
acc,1778674327.0,126.0,-5.694801091687741,0.16296114413257667,-9.805207133400184,,,,,,,,,,
acc,1778674327.0,126.0,-5.702579503311127,0.16194174714841797,-9.810384922520518,,,,,,,,,,
acc,1778674327.0,126.0,-5.711671602982494,0.1623159852424945,-9.818319897984063,,,,,,,,,,
acc,1778674327.0,126.0,-5.722065453006771,0.16233185152753501,-9.822668596426354,,,,,,,,,,
acc,1778674327.0,126.0,-5.730625509852174,0.1630575157272193,-9.828042672550884,,,,,,,,,,
acc,1778674327.0,126.0,-5.737013484625781,0.16796518586312387,-9.837556522873511,,,,,,,,,,
acc,1778674327.0,126.0,-5.745792677459629,0.1672552875292493,-9.839671605019111,,,,,,,,,,
acc,1778674327.0,126.0,-5.753427197502186,0.1696755452917022,-9.84659501140448,,,,,,,,,,
acc,1778674327.0,126.0,-5.761702265400634,0.17104440016884226,-9.849621874741532,,,,,,,,,,
acc,1778674327.0,126.0,-5.767452870018734,0.1737851876268578,-9.856490364952933,,,,,,,,,,
acc,1778674327.0,126.0,-5.773861150994419,0.17614610719579152,-9.859178828943598,,,,,,,,,,
acc,1778674327.0,126.0,-5.780211198956876,0.17326756319009876,-9.8621268356424,,,,,,,,,,
acc,1778674327.0,126.0,-5.7872134760359,0.17460377684404424,-9.8664679192739,,,,,,,,,,
acc,1778674327.0,126.0,-5.794152122372942,0.17521792426090707,-9.869349688926683,,,,,,,,,,
acc,1778674327.0,126.0,-5.799607850302379,0.1744421193144094,-9.873234672005005,,,,,,,,,,
acc,1778674327.0,126.0,-5.804339562652452,0.1705496592918269,-9.877084351661154,,,,,,,,,,
acc,1778674327.0,126.0,-5.808318353379505,0.1659826377012046,-9.879550180673364,,,,,,,,,,
acc,1778674327.0,126.0,-5.816449587974003,0.16632015560229083,-9.883377964724046,,,,,,,,,,
acc,1778674327.0,126.0,-5.819963362123335,0.16598016787955042,-9.88475719319372,,,,,,,,,,
acc,1778674327.0,126.0,-5.822415805625832,0.1642234038407441,-9.88718879232906,,,,,,,,,,
acc,1778674327.0,126.0,-5.828679601136987,0.1656418029660411,-9.886723069138519,,,,,,,,,,
acc,1778674327.0,126.0,-5.832437210350736,0.16530797953686957,-9.889385282836082,,,,,,,,,,
acc,1778674327.0,126.0,-5.8354507316234345,0.1614985229323645,-9.889254561740454,,,,,,,,,,
acc,1778674327.0,126.0,-5.837407468152861,0.163971092922102,-9.891609798211798,,,,,,,,,,
acc,1778674327.0,126.0,-5.8397013945183165,0.1625875566819463,-9.89181382453583,,,,,,,,,,
acc,1778674327.0,126.0,-5.841264542748278,0.16228148762836123,-9.889602234110109,,,,,,,,,,
acc,1778674327.0,126.0,-5.842813486419891,0.16055833410234552,-9.887446235104932,,,,,,,,,,
acc,1778674327.0,126.0,-5.84434835461234,0.15853137160232003,-9.8863037340107,,,,,,,,,,
acc,1778674327.0,126.0,-5.84586927523184,0.1585816292012517,-9.88311280511208,,,,,,,,,,
acc,1778674327.0,126.0,-5.848086307892513,0.1586314301020006,-9.88133524402172,,,,,,,,,,
acc,1778674327.0,126.0,-5.8485438608023745,0.1607750826809764,-9.87854443550593,,,,,,,,,,
acc,1778674327.0,126.0,-5.852120960453582,0.16325422654927818,-9.874678589268598,,,,,,,,,,
acc,1778674327.0,126.0,-5.852186878930696,0.16326156690017976,-9.872267738257165,,,,,,,,,,
acc,1778674327.0,126.0,-5.851897227426608,0.16500818285486926,-9.869878795001398,,,,,,,,,,
acc,1778674327.0,126.0,-5.855088883534703,0.16432515536657885,-9.864423350254366,,,,,,,,,,
acc,1778674327.0,126.0,-5.858961469443726,0.16712700104914247,-9.862496155417348,,,,,,,,,,
acc,1778674327.0,126.0,-5.856515961221246,0.16745411991886558,-9.860231502316234,,,,,,,,,,
acc,1778674327.0,126.0,-5.856541941707831,0.16256025757983267,-9.854508762084432,,,,,,,,,,
acc,1778674327.0,126.0,-5.856922657066738,0.16292887508465276,-9.851571264366425,,,,,,,,,,
acc,1778674327.0,126.0,-5.859039245973517,0.1611998387859886,-9.847276088825279,,,,,,,,,,
acc,1778674327.0,126.0,-5.863230896154564,0.1609063801457104,-9.839505783488471,,,,,,,,,,
acc,1778674327.0,126.0,-5.864225257408469,0.1602606263383665,-9.837095085308585,,,,,,,,,,
acc,1778674327.0,126.0,-5.864891115260188,0.158236369318072,-9.831547085626717,,,,,,,,,,
acc,1778674327.0,126.0,-5.866225360813067,0.15481064138056266,-9.825694539556434,,,,,,,,,,
acc,1778674327.0,126.0,-5.867902443746818,0.1524809472924584,-9.82340934611827,,,,,,,,,,
acc,1778674327.0,126.0,-5.868854353975147,0.15191175658493838,-9.820399491384089,,,,,,,,,,
acc,1778674327.0,126.0,-5.870152585004915,0.14960840508975382,-9.820185721039053,,,,,,,,,,
acc,1778674327.0,126.0,-5.872823380974529,0.14800041383049056,-9.815146350188403,,,,,,,,,,
acc,1778674327.0,126.0,-5.872701173655823,0.1453776343300137,-9.814341371809494,,,,,,,,,,
acc,1778674327.0,126.0,-5.877443114246866,0.14380808868997488,-9.81070397719325,,,,,,,,,,
acc,1778674327.0,126.0,-5.877278926767217,0.14367267132709602,-9.811678709448561,,,,,,,,,,
acc,1778674327.0,126.0,-5.88130483021252,0.13832048531483315,-9.803912406285498,,,,,,,,,,
acc,1778674327.0,126.0,-5.885649120632752,0.13404633565872048,-9.803245015792388,,,,,,,,,,
acc,1778674327.0,126.0,-5.888889039225951,0.13016598766402918,-9.800773359095404,,,,,,,,,,
acc,1778674327.0,126.0,-5.89000521223035,0.13082897639645089,-9.797649724281285,,,,,,,,,,
acc,1778674327.0,126.0,-5.890081842149997,0.13113096952113812,-9.798352617034542,,,,,,,,,,
acc,1778674327.0,126.0,-5.89399140363821,0.1338794932914787,-9.795960912643274,,,,,,,,,,
acc,1778674327.0,126.0,-5.897510476537038,0.13940727756843393,-9.797389084633986,,,,,,,,,,
acc,1778674327.0,126.0,-5.899613199937471,0.1417256224228809,-9.800259638534541,,,,,,,,,,
acc,1778674327.0,126.0,-5.903791119534711,0.1495958701235164,-9.798205575727719,,,,,,,,,,
acc,1778674327.0,126.0,-5.906156237315601,0.1532414953367682,-9.80103321567307,,,,,,,,,,
acc,1778674327.0,126.0,-5.908854833859854,0.1509260604547837,-9.799291590749904,,,,,,,,,,
acc,1778674327.0,126.0,-5.909789574873799,0.14827669533481624,-9.798311219350692,,,,,,,,,,
acc,1778674327.0,126.0,-5.91245515475544,0.14391207238097162,-9.79733975672622,,,,,,,,,,
acc,1778674327.0,126.0,-5.911972807994521,0.14168141528797187,-9.795631694796263,,,,,,,,,,
acc,1778674327.0,126.0,-5.913589148290578,0.1398259903283985,-9.79358418334661,,,,,,,,,,
acc,1778674327.0,126.0,-5.913806429529742,0.13972675885563282,-9.793010646886502,,,,,,,,,,
acc,1778674327.0,126.0,-5.915051136522038,0.13856353452889222,-9.79240681878086,,,,,,,,,,
acc,1778674327.0,126.0,-5.916994465434793,0.14333881223336042,-9.795677618049405,,,,,,,,,,
acc,1778674327.0,126.0,-5.9192396025062495,0.14459203038996027,-9.798528229817055,,,,,,,,,,
acc,1778674328.0,127.0,-5.922529241360416,0.14895756445644492,-9.798868177604112,,,,,,,,,,
acc,1778674328.0,127.0,-5.925079054055568,0.149449791478986,-9.80097986355311,,,,,,,,,,
acc,1778674328.0,127.0,-5.928670590810008,0.14926310718829253,-9.799984150613906,,,,,,,,,,
acc,1778674328.0,127.0,-5.930490157819923,0.14765825384463982,-9.79995589732989,,,,,,,,,,
acc,1778674328.0,127.0,-5.932967628539281,0.14084998522274547,-9.800637833525348,,,,,,,,,,
acc,1778674328.0,127.0,-5.93474814776025,0.1396765540081356,-9.799254772479163,,,,,,,,,,
acc,1778674328.0,127.0,-5.9358025544167905,0.13641948209158863,-9.802427849003124,,,,,,,,,,
acc,1778674328.0,127.0,-5.941390949017804,0.141924184799881,-9.801418978032084,,,,,,,,,,
acc,1778674328.0,127.0,-5.945189228168466,0.1473788654959839,-9.805211323017353,,,,,,,,,,
acc,1778674328.0,127.0,-5.948598020911472,0.15381337892236566,-9.806555435149571,,,,,,,,,,
acc,1778674328.0,127.0,-5.95023650456347,0.15809511719916583,-9.80934269296366,,,,,,,,,,
acc,1778674328.0,127.0,-5.955338773981184,0.15956920454272253,-9.809264891670606,,,,,,,,,,
acc,1778674328.0,127.0,-5.955496138018759,0.15929056374502254,-9.812985939712803,,,,,,,,,,
acc,1778674328.0,127.0,-5.957746375869211,0.15759458955129804,-9.813549470088875,,,,,,,,,,
acc,1778674328.0,127.0,-5.961715498384426,0.15836330161555393,-9.815172783209308,,,,,,,,,,
acc,1778674328.0,127.0,-5.967068418361625,0.15426198234452704,-9.815361479616557,,,,,,,,,,
acc,1778674328.0,127.0,-5.9674741643937255,0.15367660719882512,-9.819027127084853,,,,,,,,,,
acc,1778674328.0,127.0,-5.972774754550831,0.1492629147735114,-9.813323846811857,,,,,,,,,,
acc,1778674328.0,127.0,-5.976962282970576,0.14591873035702663,-9.819137808660065,,,,,,,,,,
acc,1778674328.0,127.0,-5.9849453953802385,0.14122056395299168,-9.815137361143027,,,,,,,,,,
acc,1778674328.0,127.0,-5.991471593064706,0.14039872709065593,-9.8181661102798,,,,,,,,,,
acc,1778674328.0,127.0,-5.9965541152161945,0.13993932927414388,-9.81978296569052,,,,,,,,,,
acc,1778674328.0,127.0,-5.9991411862007,0.13841920246344105,-9.819929768727548,,,,,,,,,,
acc,1778674328.0,127.0,-6.000320377056251,0.13865222212016123,-9.821530597523195,,,,,,,,,,
acc,1778674328.0,127.0,-6.006351889203837,0.13682432399038777,-9.81647900628879,,,,,,,,,,
acc,1778674328.0,127.0,-6.008849926443412,0.13639740727380728,-9.81846615444396,,,,,,,,,,
acc,1778674328.0,127.0,-6.01306459651968,0.13561939911404466,-9.81308743935163,,,,,,,,,,
acc,1778674328.0,127.0,-6.013052368897621,0.1362328318648252,-9.813685541733967,,,,,,,,,,
acc,1778674328.0,127.0,-6.017228850782166,0.13616625192836745,-9.810764049021309,,,,,,,,,,
acc,1778674328.0,127.0,-6.014765010825309,0.14025339012239646,-9.812093197071253,,,,,,,,,,
acc,1778674328.0,127.0,-6.016476664142781,0.14082471315173667,-9.807482335748343,,,,,,,,,,
acc,1778674328.0,127.0,-6.015404030450124,0.14696381389185698,-9.809196276069285,,,,,,,,,,
acc,1778674328.0,127.0,-6.01746484779389,0.14853905286995112,-9.804647233846858,,,,,,,,,,
acc,1778674328.0,127.0,-6.013933959729248,0.1532236812895723,-9.809120175730598,,,,,,,,,,
acc,1778674328.0,127.0,-6.01529819402154,0.15715581622776073,-9.802761494415131,,,,,,,,,,
acc,1778674328.0,127.0,-6.011432032847729,0.15828347725904832,-9.806186677764478,,,,,,,,,,
acc,1778674328.0,127.0,-6.012144573249893,0.16185015659205412,-9.796021017034118,,,,,,,,,,
acc,1778674328.0,127.0,-6.0069226984571635,0.16538442501091496,-9.796419242547321,,,,,,,,,,
acc,1778674328.0,127.0,-6.0021032373724585,0.17201028087359138,-9.786342339882617,,,,,,,,,,
acc,1778674328.0,127.0,-5.994878305899896,0.17577169935194972,-9.780226138323934,,,,,,,,,,
acc,1778674328.0,127.0,-5.997125643318923,0.18091880267042482,-9.775230419119199,,,,,,,,,,
acc,1778674328.0,127.0,-5.991010847526258,0.17764191874949986,-9.766765927641321,,,,,,,,,,
acc,1778674328.0,127.0,-5.990524587049975,0.17577918333994252,-9.764980723615619,,,,,,,,,,
acc,1778674328.0,127.0,-5.993521410903356,0.16768596723950846,-9.75941360893903,,,,,,,,,,
acc,1778674328.0,127.0,-5.991947433021945,0.1655942355076316,-9.756665816335202,,,,,,,,,,
acc,1778674328.0,127.0,-5.990032796299297,0.15933290425992883,-9.74975439501943,,,,,,,,,,
acc,1778674328.0,127.0,-5.9850118543458795,0.15905641077187793,-9.747058882673294,,,,,,,,,,
acc,1778674328.0,127.0,-5.982840774755916,0.15842746802161592,-9.740199266547421,,,,,,,,,,
acc,1778674328.0,127.0,-5.981718824184068,0.15989853515407035,-9.73691614466357,,,,,,,,,,
acc,1778674328.0,127.0,-5.981317001613246,0.16657424196176007,-9.736822055119035,,,,,,,,,,
acc,1778674328.0,127.0,-5.983687572451274,0.1742186858032974,-9.73424406074688,,,,,,,,,,
acc,1778674328.0,127.0,-5.977694890342761,0.1859822708618846,-9.737333460031264,,,,,,,,,,
acc,1778674328.0,127.0,-5.976264730257074,0.19589962579582995,-9.733082474394479,,,,,,,,,,
acc,1778674328.0,127.0,-5.971013938869611,0.20501692766693394,-9.736146925718598,,,,,,,,,,
acc,1778674328.0,127.0,-5.968260127614459,0.21021774289683895,-9.73432049338981,,,,,,,,,,
acc,1778674328.0,127.0,-5.97213370995921,0.20805898649876833,-9.737728665538645,,,,,,,,,,
acc,1778674328.0,127.0,-5.977711434388862,0.20453547603426103,-9.73517792705111,,,,,,,,,,
acc,1778674328.0,127.0,-5.981854102274888,0.1989496896285723,-9.736803471347443,,,,,,,,,,
acc,1778674328.0,127.0,-5.9880534197304005,0.19724829847450848,-9.733906178439762,,,,,,,,,,
acc,1778674328.0,127.0,-5.992812041230144,0.19627230077073993,-9.732774546410774,,,,,,,,,,
acc,1778674328.0,127.0,-5.995788078613877,0.1935658393208487,-9.730268826698552,,,,,,,,,,
acc,1778674328.0,127.0,-5.993838541447585,0.1884346973334627,-9.730270645701003,,,,,,,,,,
acc,1778674328.0,127.0,-5.990167387226927,0.17951654632893546,-9.727787679285239,,,,,,,,,,
acc,1778674328.0,127.0,-5.987949458634043,0.17277373944943816,-9.727776541368224,,,,,,,,,,
acc,1778674328.0,127.0,-5.986781084764602,0.16644716718452035,-9.72879491384804,,,,,,,,,,
acc,1778674328.0,127.0,-5.981789691663147,0.16468616007570602,-9.735057533979578,,,,,,,,,,
acc,1778674328.0,127.0,-5.976488694254495,0.16365108815078888,-9.731146706571357,,,,,,,,,,
acc,1778674328.0,127.0,-5.9719457913258305,0.16855336210863836,-9.739411261455617,,,,,,,,,,
acc,1778674328.0,127.0,-5.9695384740247475,0.17167175566114098,-9.739330001890588,,,,,,,,,,
acc,1778674328.0,127.0,-5.967508003226886,0.18519781758054088,-9.750643897755403,,,,,,,,,,
acc,1778674328.0,127.0,-5.9679097546607105,0.19789103363107813,-9.754294202064813,,,,,,,,,,
acc,1778674328.0,127.0,-5.969017787988028,0.21220824650784026,-9.76447821042747,,,,,,,,,,
acc,1778674328.0,127.0,-5.972565017881708,0.22256171140998354,-9.76690240252036,,,,,,,,,,
acc,1778674328.0,127.0,-5.97189141543383,0.23353103468952305,-9.77452257299144,,,,,,,,,,
acc,1778674328.0,127.0,-5.968419697814496,0.2266523525446969,-9.767413390697447,,,,,,,,,,
acc,1778674328.0,127.0,-5.9590870825334274,0.21809684518824507,-9.765977274019397,,,,,,,,,,
acc,1778674328.0,127.0,-5.949484312235367,0.20369114291589863,-9.754508658095142,,,,,,,,,,
acc,1778674328.0,127.0,-5.939968803643649,0.19743859087670726,-9.751769943183207,,,,,,,,,,
acc,1778674328.0,127.0,-5.931569163885386,0.19227225673201767,-9.743554134959876,,,,,,,,,,
acc,1778674328.0,127.0,-5.923600823692742,0.19063154436210467,-9.739246621291995,,,,,,,,,,
acc,1778674328.0,127.0,-5.9167342929979325,0.18936070315949985,-9.743000494199281,,,,,,,,,,
acc,1778674328.0,127.0,-5.9120244630371825,0.18426777390601165,-9.743845030143703,,,,,,,,,,
acc,1778674328.0,127.0,-5.907712393740403,0.17886616302102168,-9.750325849496678,,,,,,,,,,
acc,1778674328.0,127.0,-5.903794470600976,0.17145482806977183,-9.754972949642683,,,,,,,,,,
acc,1778674328.0,127.0,-5.898882750089851,0.16758951551514364,-9.768309988096611,,,,,,,,,,
acc,1778674328.0,127.0,-5.894015663063935,0.1557370840161979,-9.7682500948781,,,,,,,,,,
acc,1778674328.0,127.0,-5.891251613182081,0.1607112735552982,-9.781466482064618,,,,,,,,,,
acc,1778674328.0,127.0,-5.893056249608324,0.1663147002404099,-9.783061861068308,,,,,,,,,,
acc,1778674328.0,127.0,-5.8941345543968495,0.18059937494107386,-9.791600082674803,,,,,,,,,,
acc,1778674328.0,127.0,-5.89136942413787,0.18428274296248753,-9.795517147279948,,,,,,,,,,
acc,1778674328.0,127.0,-5.884476308149966,0.18168523233893477,-9.795529486274988,,,,,,,,,,
acc,1778674328.0,127.0,-5.8762259655515505,0.16796537842367723,-9.793518407348266,,,,,,,,,,
acc,1778674328.0,127.0,-5.86737616575244,0.15855879684144863,-9.795323745349512,,,,,,,,,,
acc,1778674328.0,127.0,-5.86102055633505,0.1589637760786675,-9.795728307046298,,,,,,,,,,
acc,1778674328.0,127.0,-5.853693301143996,0.16042996965104225,-9.803405999867593,,,,,,,,,,
acc,1778674328.0,127.0,-5.848881895119123,0.16571648513666884,-9.808245191625037,,,,,,,,,,
acc,1778674328.0,127.0,-5.844469172790132,0.16605642147222965,-9.813075903337802,,,,,,,,,,
acc,1778674328.0,127.0,-5.839031655043929,0.1646539360311219,-9.820631450507634,,,,,,,,,,
acc,1778674328.0,127.0,-5.828780512375181,0.1542125515759316,-9.82708893929975,,,,,,,,,,
acc,1778674328.0,127.0,-5.823130588785901,0.14631531480543564,-9.832813309705822,,,,,,,,,,
acc,1778674328.0,127.0,-5.818951872138318,0.1398742122617562,-9.836355864009658,,,,,,,,,,
acc,1778674328.0,127.0,-5.809238159023312,0.13835467730059317,-9.8489533645738,,,,,,,,,,
acc,1778674328.0,127.0,-5.800997086705588,0.13791385408452292,-9.851319851896818,,,,,,,,,,
acc,1778674328.0,127.0,-5.8039768402303,0.14234007307792657,-9.861012639832223,,,,,,,,,,
acc,1778674328.0,127.0,-5.802030985575892,0.1415080631521705,-9.863305037216316,,,,,,,,,,
acc,1778674328.0,127.0,-5.79626917685957,0.1354656065632068,-9.86522164148657,,,,,,,,,,
acc,1778674328.0,127.0,-5.788820384687943,0.13224680049230653,-9.863961622200192,,,,,,,,,,
acc,1778674328.0,127.0,-5.781119813300517,0.1241942077777384,-9.865126832979994,,,,,,,,,,
acc,1778674328.0,127.0,-5.774163656359287,0.11759916102542037,-9.864861590029145,,,,,,,,,,
acc,1778674328.0,127.0,-5.770429908995789,0.11248390967364741,-9.868467888044478,,,,,,,,,,
acc,1778674328.0,127.0,-5.766730090710948,0.11401751041051451,-9.874526174858959,,,,,,,,,,
acc,1778674328.0,127.0,-5.757490924165713,0.11553717510541023,-9.88116835311081,,,,,,,,,,
acc,1778674328.0,127.0,-5.757706826164204,0.11633309774862272,-9.894388045505396,,,,,,,,,,
acc,1778674328.0,127.0,-5.755506995227482,0.1136431132129469,-9.897371061675068,,,,,,,,,,
acc,1778674328.0,127.0,-5.7487835855117435,0.10646950743952537,-9.906290405007166,,,,,,,,,,
acc,1778674328.0,127.0,-5.744570537712346,0.1003904892808645,-9.91296340472965,,,,,,,,,,
acc,1778674328.0,127.0,-5.741105707108147,0.09820034829678045,-9.91822689849462,,,,,,,,,,
acc,1778674328.0,127.0,-5.7400861328990835,0.10334241114921393,-9.924116991363684,,,,,,,,,,
acc,1778674328.0,127.0,-5.739075823701781,0.1000960455792656,-9.93243832895269,,,,,,,,,,
acc,1778674328.0,127.0,-5.735660924324894,0.1003578456073511,-9.941642451654683,,,,,,,,,,
acc,1778674328.0,127.0,-5.728762887738607,0.09887793391025246,-9.94487049879927,,,,,,,,,,
acc,1778674328.0,127.0,-5.720898134498706,0.09567213766366098,-9.944271070304001,,,,,,,,,,
acc,1778674328.0,127.0,-5.71065558400116,0.09945281286188674,-9.940908356122252,,,,,,,,,,
acc,1778674328.0,127.0,-5.7036653069774275,0.0962417926129915,-9.939244534291277,,,,,,,,,,
acc,1778674328.0,127.0,-5.699507293428323,0.0961836549894921,-9.936992391362166,,,,,,,,,,
acc,1778674328.0,127.0,-5.695742026101937,0.09474167474026957,-9.937529455827681,,,,,,,,,,
acc,1778674328.0,127.0,-5.688177337995798,0.09189293267436666,-9.940120440041735,,,,,,,,,,
acc,1778674328.0,127.0,-5.679971458610472,0.09116438109569272,-9.937469881498885,,,,,,,,,,
acc,1778674329.0,128.0,-5.672195118050601,0.09150734438949071,-9.940416377937582,,,,,,,,,,
acc,1778674329.0,128.0,-5.666583745744897,0.09252162941262966,-9.938508557172806,,,,,,,,,,
acc,1778674329.0,128.0,-5.663117659240051,0.09075796471800976,-9.939031844029847,,,,,,,,,,
acc,1778674329.0,128.0,-5.659328107763434,0.09039468852894686,-9.940224804903611,,,,,,,,,,
acc,1778674329.0,128.0,-5.652804250609094,0.0890053134187033,-9.938567194600981,,,,,,,,,,
acc,1778674329.0,128.0,-5.644919811357916,0.0837949274750933,-9.936924647232084,,,,,,,,,,
acc,1778674329.0,128.0,-5.637461989960388,0.08523426715789657,-9.935048556308011,,,,,,,,,,
acc,1778674329.0,128.0,-5.630426900593889,0.08282688200016132,-9.932089115811998,,,,,,,,,,
acc,1778674329.0,128.0,-5.6224263399947905,0.08324560929672854,-9.931215377369652,,,,,,,,,,
acc,1778674329.0,128.0,-5.615172919877291,0.08156623707854192,-9.924492627587668,,,,,,,,,,
acc,1778674329.0,128.0,-5.6079854125898345,0.08267085831170772,-9.922729508141416,,,,,,,,,,
acc,1778674329.0,128.0,-5.601218180951241,0.08447537434206726,-9.916403338043306,,,,,,,,,,
acc,1778674329.0,128.0,-5.591743711317886,0.08487912156113042,-9.91471372708686,,,,,,,,,,
acc,1778674329.0,128.0,-5.584094670200394,0.08559866729082997,-9.908850862723959,,,,,,,,,,
acc,1778674329.0,128.0,-5.57616017519779,0.08492731257188976,-9.908188293491365,,,,,,,,,,
acc,1778674329.0,128.0,-5.5703920765256925,0.08532695296570934,-9.905117965046163,,,,,,,,,,
acc,1778674329.0,128.0,-5.564676393362386,0.08778177097768165,-9.903814878887758,,,,,,,,,,
acc,1778674329.0,128.0,-5.557592784117026,0.08744553987248578,-9.902523634053129,,,,,,,,,,
acc,1778674329.0,128.0,-5.548834211905954,0.0898811059922641,-9.898439886731705,,,,,,,,,,
acc,1778674329.0,128.0,-5.5377414590677665,0.08881586529896883,-9.89897231225259,,,,,,,,,,
acc,1778674329.0,128.0,-5.525365136682768,0.08847023723636542,-9.895985730702069,,,,,,,,,,
acc,1778674329.0,128.0,-5.510652014306288,0.08986709173036621,-9.893416753854783,,,,,,,,,,
acc,1778674329.0,128.0,-5.492593926704708,0.08951191102844432,-9.89328489263481,,,,,,,,,,
acc,1778674329.0,128.0,-5.471221260952029,0.09089929968862834,-9.88932059339398,,,,,,,,,,
acc,1778674329.0,128.0,-5.448977917144264,0.09191911009256178,-9.888480527547394,,,,,,,,,,
acc,1778674329.0,128.0,-5.421363723624809,0.09292965333864084,-9.887293124631073,,,,,,,,,,
acc,1778674329.0,128.0,-5.392261131393959,0.09325657535833924,-9.888636774955245,,,,,,,,,,
acc,1778674329.0,128.0,-5.361683665736327,0.09358052659253893,-9.887802923061479,,,,,,,,,,
acc,1778674329.0,128.0,-5.329999690807055,0.09422100145361256,-9.887012142855156,,,,,,,,,,
acc,1778674329.0,128.0,-5.2982486707525265,0.09694995979212989,-9.885838083353677,,,,,,,,,,
acc,1778674329.0,128.0,-5.26646670009405,0.09826975787660738,-9.884426223084125,,,,,,,,,,
acc,1778674329.0,128.0,-5.2331987095305825,0.09993252455032192,-9.884376060056306,,,,,,,,,,
acc,1778674329.0,128.0,-5.199203629730381,0.10019581051405672,-9.882587020170558,,,,,,,,,,
acc,1778674329.0,128.0,-5.165517467909754,0.10287047493764578,-9.882518075872845,,,,,,,,,,
acc,1778674329.0,128.0,-5.130398075105374,0.10484639603706772,-9.882130290665344,,,,,,,,,,
acc,1778674329.0,128.0,-5.122042814712093,0.10957310350733582,-9.904002410754986,,,,,,,,,,
acc,1778674329.0,128.0,-5.108190501686218,0.1128724878158439,-9.900970120014277,,,,,,,,,,
acc,1778674329.0,128.0,-5.084383023058492,0.11369262482956136,-9.887919844084152,,,,,,,,,,
acc,1778674329.0,128.0,-5.055928849964557,0.11695457447927632,-9.863451745605694,,,,,,,,,,
acc,1778674329.0,128.0,-5.020775904000744,0.11983192056655016,-9.85418557534569,,,,,,,,,,
acc,1778674329.0,128.0,-4.86649623342976,0.10284050027538527,-9.839785600882822,,,,,,,,,,
acc,1778674329.0,128.0,-4.838282694931247,0.09576505942337853,-9.826900851891905,,,,,,,,,,
acc,1778674329.0,128.0,-4.789772984576469,0.09674065399539755,-9.820025624752327,,,,,,,,,,
acc,1778674329.0,128.0,-4.743798392206109,0.0987722776198307,-9.810799111864668,,,,,,,,,,
acc,1778674329.0,128.0,-4.688834963016604,0.09730677421345621,-9.79927816496007,,,,,,,,,,
acc,1778674329.0,128.0,-4.632631661394393,0.09652902631723034,-9.788465350959882,,,,,,,,,,
acc,1778674329.0,128.0,-4.575909686869944,0.10097635308939841,-9.779170659768898,,,,,,,,,,
acc,1778674329.0,128.0,-4.519348181886683,0.10328896283432026,-9.768931030664271,,,,,,,,,,
acc,1778674329.0,128.0,-4.465394962653812,0.1052610810729256,-9.758393985258294,,,,,,,,,,
acc,1778674329.0,128.0,-4.411577061987879,0.1023167477396254,-9.751821822044452,,,,,,,,,,
acc,1778674329.0,128.0,-4.3586031737814865,0.09872473169108961,-9.744315475290245,,,,,,,,,,
acc,1778674329.0,128.0,-4.3074950375176755,0.10212269664263997,-9.7409949490459,,,,,,,,,,
acc,1778674329.0,128.0,-4.255821927881155,0.10896845828885789,-9.73703016769044,,,,,,,,,,
acc,1778674329.0,128.0,-4.20355347541556,0.11504207891703083,-9.734485776678762,,,,,,,,,,
acc,1778674329.0,128.0,-4.151085564393063,0.11932117502577066,-9.73338437217508,,,,,,,,,,
acc,1778674329.0,128.0,-4.097000132957926,0.12079264456658842,-9.730127684011965,,,,,,,,,,
acc,1778674329.0,128.0,-4.041666841516583,0.11912703905409608,-9.727965493323582,,,,,,,,,,
acc,1778674329.0,128.0,-3.985771476909821,0.11431737116199647,-9.722344276291173,,,,,,,,,,
acc,1778674329.0,128.0,-3.9276153084433307,0.11374000740427091,-9.717874537893183,,,,,,,,,,
acc,1778674329.0,128.0,-3.871726945787522,0.1162915938364224,-9.709931247795874,,,,,,,,,,
acc,1778674329.0,128.0,-3.8173758484404323,0.11917496451329383,-9.704828881300987,,,,,,,,,,
acc,1778674329.0,128.0,-3.7656129505599485,0.12132220096579038,-9.714397483960283,,,,,,,,,,
acc,1778674329.0,128.0,-3.7139654584057173,0.11755747974991354,-9.729416619067738,,,,,,,,,,
acc,1778674329.0,128.0,-3.661047961442272,0.11382696907468377,-9.735638085960375,,,,,,,,,,
acc,1778674329.0,128.0,-3.6096762274806435,0.11499340344549559,-9.74109309397553,,,,,,,,,,
acc,1778674329.0,128.0,-3.5598007246862036,0.1210122745601435,-9.748592826045611,,,,,,,,,,
acc,1778674329.0,128.0,-3.5096685148232867,0.12456268039669602,-9.756734339653846,,,,,,,,,,
acc,1778674329.0,128.0,-3.4589624632094043,0.12492161615519871,-9.764091937568525,,,,,,,,,,
acc,1778674329.0,128.0,-3.4073328135614824,0.12701663199130755,-9.772092608613937,,,,,,,,,,
acc,1778674329.0,128.0,-3.3540780261050864,0.12944757190471634,-9.7803755473209,,,,,,,,,,
acc,1778674329.0,128.0,-3.2992128686915305,0.13011708884316478,-9.785104543357232,,,,,,,,,,
acc,1778674329.0,128.0,-3.244491316750531,0.13042555092686423,-9.789435604579872,,,,,,,,,,
acc,1778674329.0,128.0,-3.190267027094165,0.12934684814647573,-9.794082270627126,,,,,,,,,,
acc,1778674329.0,128.0,-3.1379553463051177,0.13175661306395242,-9.799041682641576,,,,,,,,,,
acc,1778674329.0,128.0,-3.088177829072353,0.13378951834066788,-9.801861724245168,,,,,,,,,,
acc,1778674329.0,128.0,-3.036083914259332,0.1340646085515543,-9.808489775980517,,,,,,,,,,
acc,1778674329.0,128.0,-2.9865576875798516,0.13085853360349833,-9.813992694197646,,,,,,,,,,
acc,1778674329.0,128.0,-2.9381559417372776,0.1287464961989023,-9.821859386690303,,,,,,,,,,
acc,1778674329.0,128.0,-2.892288332779489,0.12803801299530645,-9.825820948139302,,,,,,,,,,
acc,1778674329.0,128.0,-2.8579834760430822,0.12872033878929878,-9.829782013780637,,,,,,,,,,
acc,1778674329.0,128.0,-2.798574754793112,0.12975143505659434,-9.834417017309118,,,,,,,,,,
acc,1778674329.0,128.0,-2.7564248046409325,0.13006321988640585,-9.835176265684849,,,,,,,,,,
acc,1778674329.0,128.0,-2.7163972095818822,0.13317640767016453,-9.841182116175501,,,,,,,,,,
acc,1778674329.0,128.0,-2.677088321656986,0.13313760188743554,-9.844009687075019,,,,,,,,,,
acc,1778674329.0,128.0,-2.638136639013647,0.13274418696360166,-9.847805469138992,,,,,,,,,,
acc,1778674329.0,128.0,-2.5974446121293266,0.1333837471062396,-9.846703713034294,,,,,,,,,,
acc,1778674329.0,128.0,-2.5585067302132414,0.1350823898885416,-9.847315807066156,,,,,,,,,,
acc,1778674329.0,128.0,-2.523756318431354,0.1395343386946101,-9.853814784339349,,,,,,,,,,
acc,1778674329.0,128.0,-2.488966717568252,0.1411770902037548,-9.858941331405367,,,,,,,,,,
acc,1778674329.0,128.0,-2.4534638545515093,0.14244995202906988,-9.862920894973977,,,,,,,,,,
acc,1778674329.0,128.0,-2.418638581804777,0.14438568545965888,-9.865515428235055,,,,,,,,,,
acc,1778674329.0,128.0,-2.3861885712112354,0.14946302657250707,-9.872239488264036,,,,,,,,,,
acc,1778674329.0,128.0,-2.3557727710218206,0.15133503122852732,-9.87439437132248,,,,,,,,,,
acc,1778674329.0,128.0,-2.324603963349384,0.1507762537579415,-9.876565167021663,,,,,,,,,,
acc,1778674329.0,128.0,-2.290594687328855,0.15196188666151686,-9.874172667531136,,,,,,,,,,
acc,1778674329.0,128.0,-2.2603731327451837,0.1548760782417358,-9.8783687927107,,,,,,,,,,
acc,1778674329.0,128.0,-2.2276219694086663,0.15393015192777385,-9.880858443156482,,,,,,,,,,
acc,1778674329.0,128.0,-2.192044716808334,0.14986911777884027,-9.876297132167178,,,,,,,,,,
acc,1778674329.0,128.0,-2.1567907596044007,0.14513505417095576,-9.873907068346753,,,,,,,,,,
acc,1778674329.0,128.0,-2.1305538324835314,0.14601698765758156,-9.872603626862816,,,,,,,,,,
acc,1778674329.0,128.0,-2.1028159912486064,0.1482752687174547,-9.8678333554725,,,,,,,,,,
acc,1778674329.0,128.0,-2.069437771265865,0.15296229378762538,-9.863070937835563,,,,,,,,,,
acc,1778674329.0,128.0,-2.034942998495597,0.15480250011959834,-9.85384372243547,,,,,,,,,,
acc,1778674329.0,128.0,-2.0000872462024946,0.1542122132818623,-9.845019823427295,,,,,,,,,,
acc,1778674329.0,128.0,-1.9704112692150852,0.15955523024120755,-9.846002190056787,,,,,,,,,,
acc,1778674329.0,128.0,-1.9427442946046494,0.17038715993981307,-9.843141993553148,,,,,,,,,,
acc,1778674329.0,128.0,-1.9174230371510448,0.17835192566572552,-9.841763147680334,,,,,,,,,,
acc,1778674329.0,128.0,-1.8902375739059223,0.18521491441839624,-9.841710213761036,,,,,,,,,,
acc,1778674329.0,128.0,-1.8587910832905998,0.18782693115364493,-9.836830218938077,,,,,,,,,,
acc,1778674329.0,128.0,-1.8283047804563177,0.1883209176736302,-9.83266899848876,,,,,,,,,,
acc,1778674329.0,128.0,-1.7980955108560333,0.18778100613328394,-9.828510097262974,,,,,,,,,,
acc,1778674329.0,128.0,-1.7681607570505513,0.1861811064339101,-9.825453892042317,,,,,,,,,,
acc,1778674329.0,128.0,-1.7384980244769945,0.18739997233802172,-9.82207048811828,,,,,,,,,,
acc,1778674329.0,128.0,-1.7070105467819037,0.18544856428408207,-9.819463256647193,,,,,,,,,,
acc,1778674329.0,128.0,-1.6758092001345795,0.18248548889448774,-9.814110984713357,,,,,,,,,,
acc,1778674329.0,128.0,-1.645246346196839,0.17990431024040596,-9.81086614971084,,,,,,,,,,
acc,1778674329.0,128.0,-1.614606259349257,0.17770154888643644,-9.807650800971018,,,,,,,,,,
acc,1778674329.0,128.0,-1.5849545267401286,0.17725813701301465,-9.803115803084685,,,,,,,,,,
acc,1778674329.0,128.0,-1.5559272143713552,0.1799424580795209,-9.79997088281233,,,,,,,,,,
acc,1778674329.0,128.0,-1.526808706327777,0.1850516607576211,-9.794440769903934,,,,,,,,,,
acc,1778674329.0,128.0,-1.4972448786301396,0.19114383545640978,-9.792439584349504,,,,,,,,,,
acc,1778674329.0,128.0,-1.4679497015075402,0.1975356114984732,-9.789391680347533,,,,,,,,,,
acc,1778674329.0,128.0,-1.4392756954691874,0.20422427545226388,-9.787791338339455,,,,,,,,,,
acc,1778674329.0,128.0,-1.410152321438673,0.20701852236545962,-9.784785673589361,,,,,,,,,,
acc,1778674329.0,128.0,-1.3827134607902372,0.20630870311631222,-9.781807321728909,,,,,,,,,,
acc,1778674329.0,128.0,-1.3551689699873124,0.2038660014082283,-9.779175511063258,,,,,,,,,,
acc,1778674329.0,128.0,-1.3271648562188139,0.2014454968670656,-9.773124435928134,,,,,,,,,,
acc,1778674329.0,128.0,-1.2987407814147758,0.2014607587433507,-9.768867689517615,,,,,,,,,,
acc,1778674330.0,129.0,-1.2698650674590095,0.20147588193286362,-9.764685119108087,,,,,,,,,,
acc,1778674330.0,129.0,-1.240896780232648,0.20184583855695554,-9.761179491120002,,,,,,,,,,
acc,1778674330.0,129.0,-1.2146409971418342,0.20221243333424122,-9.758735128392484,,,,,,,,,,
acc,1778674330.0,129.0,-1.189653213104893,0.20360509686324627,-9.757732843195784,,,,,,,,,,
acc,1778674330.0,129.0,-1.1638630873675626,0.2032457632958692,-9.755674762406697,,,,,,,,,,
acc,1778674330.0,129.0,-1.1379523582815427,0.20359963676421655,-9.754735781537219,,,,,,,,,,
acc,1778674330.0,129.0,-1.1112476835110865,0.20430525630951343,-9.753414868095245,,,,,,,,,,
acc,1778674330.0,129.0,-1.084785677798862,0.20709876733762106,-9.751431519700711,,,,,,,,,,
acc,1778674330.0,129.0,-1.0595935360265278,0.21054133162115857,-9.748756261631334,,,,,,,,,,
acc,1778674330.0,129.0,-1.0342753569428085,0.21569194553254534,-9.748874055820204,,,,,,,,,,
acc,1778674330.0,129.0,-1.0085128093650582,0.21802701328623478,-9.747996873908225,,,,,,,,,,
acc,1778674330.0,129.0,-0.9808900660612683,0.21686219659033884,-9.747447130483014,,,,,,,,,,
acc,1778674330.0,129.0,-0.9538732962047062,0.21535299388321721,-9.74548251738234,,,,,,,,,,
acc,1778674330.0,129.0,-0.9263921079096211,0.21524187641868964,-9.742861318716658,,,,,,,,,,
acc,1778674330.0,129.0,-0.8974213031873601,0.21651613960354527,-9.739270033555568,,,,,,,,,,
acc,1778674330.0,129.0,-0.8687137601582244,0.2195536504267517,-9.73535642112359,,,,,,,,,,
acc,1778674330.0,129.0,-0.8409770191617171,0.22256355897070423,-9.733501677964226,,,,,,,,,,
acc,1778674330.0,129.0,-0.814876696660834,0.2251911542873002,-9.73201875088525,,,,,,,,,,
acc,1778674330.0,129.0,-0.7890135513856901,0.23056360501531198,-9.732998573774179,,,,,,,,,,
acc,1778674330.0,129.0,-0.7630304663003474,0.22963982835776944,-9.7339339985176,,,,,,,,,,
acc,1778674330.0,129.0,-0.7369285222272378,0.22592021000697887,-9.731772713694657,,,,,,,,,,
acc,1778674330.0,129.0,-0.7114187409762058,0.22745239947746754,-9.730695963173112,,,,,,,,,,
acc,1778674330.0,129.0,-0.6854308288993349,0.22687636218702067,-9.729274035458086,,,,,,,,,,
acc,1778674330.0,129.0,-0.6607439760547407,0.2287548338318251,-9.726054698505811,,,,,,,,,,
acc,1778674330.0,129.0,-0.636955894317079,0.23061623554604987,-9.726698252339139,,,,,,,,,,
acc,1778674330.0,129.0,-0.6123545781062733,0.23384509335589662,-9.729501250374097,,,,,,,,,,
acc,1778674330.0,129.0,-0.5879768174444717,0.23913890454696796,-9.728409646592725,,,,,,,,,,
acc,1778674330.0,129.0,-0.563465609990705,0.24126090655413407,-9.732261996447846,,,,,,,,,,
acc,1778674330.0,129.0,-0.5402420336636164,0.2367612566782457,-9.730825837972919,,,,,,,,,,
acc,1778674330.0,129.0,-0.5165195696259217,0.23088263047131108,-9.731426035804759,,,,,,,,,,
acc,1778674330.0,129.0,-0.4954619402040657,0.22960099301195017,-9.732766206550789,,,,,,,,,,
acc,1778674330.0,129.0,-0.47491513177499356,0.230425296425433,-9.733739237206926,,,,,,,,,,
acc,1778674330.0,129.0,-0.45455503502418965,0.23819945818638344,-9.737827129391665,,,,,,,,,,
acc,1778674330.0,129.0,-0.43615478940692654,0.24831673693905285,-9.74184237997712,,,,,,,,,,
acc,1778674330.0,129.0,-0.4182412167697548,0.25521837499406663,-9.75000974142785,,,,,,,,,,
acc,1778674330.0,129.0,-0.3987510945516064,0.25996300245686904,-9.749796668572216,,,,,,,,,,
acc,1778674330.0,129.0,-0.38014800530596266,0.258062136791531,-9.754803539074693,,,,,,,,,,
acc,1778674330.0,129.0,-0.36032960307260803,0.2551491445060132,-9.756250742642532,,,,,,,,,,
acc,1778674330.0,129.0,-0.3413657316646337,0.25258209039637053,-9.758075260492994,,,,,,,,,,
acc,1778674330.0,129.0,-0.32328411111551814,0.252132667004616,-9.761267569607549,,,,,,,,,,
acc,1778674330.0,129.0,-0.3063962098781954,0.2548465255369148,-9.760952195316813,,,,,,,,,,
acc,1778674330.0,129.0,-0.28898733305090013,0.2613338647293104,-9.764792799602887,,,,,,,,,,
acc,1778674330.0,129.0,-0.2720916239459459,0.2702115178941546,-9.766894665466047,,,,,,,,,,
acc,1778674330.0,129.0,-0.2560238776641448,0.27623976587101634,-9.77039729665358,,,,,,,,,,
acc,1778674330.0,129.0,-0.24148651211488462,0.27873455987572004,-9.774116577642934,,,,,,,,,,
acc,1778674330.0,129.0,-0.22569687869965072,0.27630815270943027,-9.777163117099079,,,,,,,,,,
acc,1778674330.0,129.0,-0.2083113951753703,0.2718094910958172,-9.779152572183397,,,,,,,,,,
acc,1778674330.0,129.0,-0.1900544958862507,0.26458296762197064,-9.78112394881535,,,,,,,,,,
acc,1778674330.0,129.0,-0.1722829669692481,0.2636695197453546,-9.7826869460556,,,,,,,,,,
acc,1778674330.0,129.0,-0.15538286301765486,0.26521364689955895,-9.783561301850154,,,,,,,,,,
acc,1778674330.0,129.0,-0.13863633263834707,0.26709870413128295,-9.786522015796523,,,,,,,,,,
acc,1778674330.0,129.0,-0.12239694206075763,0.27173537340611753,-9.786971065650578,,,,,,,,,,
acc,1778674330.0,129.0,-0.10701506278356376,0.2697275305850338,-9.788516423694746,,,,,,,,,,
acc,1778674330.0,129.0,-0.09141798990114691,0.268447865942612,-9.789692777083891,,,,,,,,,,
acc,1778674330.0,129.0,-0.07805695331146217,0.26402063183775787,-9.791923335195797,,,,,,,,,,
acc,1778674330.0,129.0,-0.06829599566643202,0.2648516357535361,-9.789945025919588,,,,,,,,,,
acc,1778674330.0,129.0,-0.04225979223712942,0.2684793153127414,-9.785570922855337,,,,,,,,,,
acc,1778674330.0,129.0,-0.024091961465684642,0.27033469696571344,-9.783969806238643,,,,,,,,,,
acc,1778674330.0,129.0,-0.008893451365113806,0.27288315114443507,-9.782738210049919,,,,,,,,,,
acc,1778674330.0,129.0,0.006521909554509498,0.2743435527610612,-9.779423502002231,,,,,,,,,,
acc,1778674330.0,129.0,0.023536521648708307,0.2747612743718858,-9.777878247845495,,,,,,,,,,
acc,1778674330.0,129.0,0.04039651961940867,0.27584963836331877,-9.778441339169227,,,,,,,,,,
acc,1778674330.0,129.0,0.056393375832104506,0.27625367396685074,-9.774810706518341,,,,,,,,,,
acc,1778674330.0,129.0,0.07157042813477228,0.2787483415862909,-9.776111605646904,,,,,,,,,,
acc,1778674330.0,129.0,0.0866095644728625,0.279126036274421,-9.774596447148514,,,,,,,,,,
acc,1778674330.0,129.0,0.10151203810774355,0.2753117007999395,-9.77419545495907,,,,,,,,,,
acc,1778674330.0,129.0,0.11695352918661486,0.2725614267652348,-9.77379810664088,,,,,,,,,,
acc,1778674330.0,129.0,0.13367456657797055,0.26742237389279744,-9.773368865634513,,,,,,,,,,
acc,1778674330.0,129.0,0.15056313410040567,0.264743791258253,-9.771559163378738,,,,,,,,,,
acc,1778674330.0,129.0,0.16697875638296591,0.2655682237246834,-9.768665508281648,,,,,,,,,,
acc,1778674330.0,129.0,0.18324520764497712,0.26397139350312715,-9.766508080861259,,,,,,,,,,
acc,1778674330.0,129.0,0.1990088816504729,0.26341847394566187,-9.761246554690079,,,,,,,,,,
acc,1778674330.0,129.0,0.21565870902714487,0.2607762753014298,-9.760611903951245,,,,,,,,,,
acc,1778674330.0,129.0,0.2314827988549772,0.2602523902230993,-9.756823822420305,,,,,,,,,,
acc,1778674330.0,129.0,0.24716309299915884,0.25937829489991976,-9.755128963803793,,,,,,,,,,
acc,1778674330.0,129.0,0.26234593637730635,0.2588671134620331,-9.755508315783919,,,,,,,,,,
acc,1778674330.0,129.0,0.2777457729401791,0.25768613892593495,-9.753860914804472,,,,,,,,,,
acc,1778674330.0,129.0,0.2926507072936957,0.2550960307995672,-9.753932322306849,,,,,,,,,,
acc,1778674330.0,129.0,0.3070652275952603,0.25114508843387523,-9.751553815603003,,,,,,,,,,
acc,1778674330.0,129.0,0.322058693799862,0.2510636941377201,-9.749906846264274,,,,,,,,,,
acc,1778674330.0,129.0,0.3365609505385354,0.2527223721648745,-9.746216043066994,,,,,,,,,,
acc,1778674330.0,129.0,0.3512863850464624,0.25610531023847505,-9.744298111388803,,,,,,,,,,
acc,1778674330.0,129.0,0.3658780075029649,0.25807313617933103,-9.741297210365056,,,,,,,,,,
acc,1778674330.0,129.0,0.3799820721030355,0.2600230802148452,-9.73977894765775,,,,,,,,,,
acc,1778674330.0,129.0,0.39150870580929414,0.2595060395240321,-9.737884016392155,,,,,,,,,,
acc,1778674330.0,129.0,0.40431495722896615,0.2576093263446527,-9.738065104723644,,,,,,,,,,
acc,1778674330.0,129.0,0.41735980733894473,0.2557298488591568,-9.736540709158383,,,,,,,,,,
acc,1778674330.0,129.0,0.4299311462387108,0.2538674504444199,-9.733965271577805,,,,,,,,,,
acc,1778674330.0,129.0,0.442388247650527,0.253761317669761,-9.735956806212215,,,,,,,,,,
acc,1778674330.0,129.0,0.4550871205268571,0.25120687493485,-9.733422168998077,,,,,,,,,,
acc,1778674330.0,129.0,0.46802555876996793,0.24626187381656123,-9.735099171466793,,,,,,,,,,
acc,1778674330.0,129.0,0.48294072718553793,0.24203624687875563,-9.73601550778898,,,,,,,,,,
acc,1778674330.0,129.0,0.49736538855088563,0.2371745805206217,-9.735574640688252,,,,,,,,,,
acc,1778674330.0,129.0,0.5109490474847409,0.23235709279424605,-9.73865194861866,,,,,,,,,,
acc,1778674330.0,129.0,0.524089793338346,0.2272284204687875,-9.740991359993894,,,,,,,,,,
acc,1778674330.0,129.0,0.5364011947904108,0.22633495109325302,-9.742209114960987,,,,,,,,,,
acc,1778674330.0,129.0,0.5496301299768541,0.22509463902345878,-9.740647062204074,,,,,,,,,,
acc,1778674330.0,129.0,0.5638037464150509,0.22734426320420534,-9.74296834370736,,,,,,,,,,
acc,1778674330.0,129.0,0.5785230035229124,0.23166774828282316,-9.739624564692395,,,,,,,,,,
acc,1778674330.0,129.0,0.59310850471427,0.23559697439643396,-9.74049977814308,,,,,,,,,,
acc,1778674330.0,129.0,0.6061770945391306,0.23636679150083204,-9.741757494542048,,,,,,,,,,
acc,1778674330.0,129.0,0.6184524900141747,0.23432538608154865,-9.74229384926471,,,,,,,,,,
acc,1778674330.0,129.0,0.6302613755064335,0.23510675828407737,-9.742825330058139,,,,,,,,,,
acc,1778674330.0,129.0,0.6443767229860577,0.234816135642107,-9.745091322981466,,,,,,,,,,
acc,1778674330.0,129.0,0.6583638023591498,0.23452815392810913,-9.744958447918787,,,,,,,,,,
acc,1778674330.0,129.0,0.6722237792156603,0.23598212182552053,-9.746495115185029,,,,,,,,,,
acc,1778674330.0,129.0,0.6838989993710327,0.24125651354086686,-9.749473187259571,,,,,,,,,,
acc,1778674330.0,129.0,0.6957876016936535,0.24229437813434548,-9.75064936105407,,,,,,,,,,
acc,1778674330.0,129.0,0.7079231324231673,0.2401991079190498,-9.753944644697775,,,,,,,,,,
acc,1778674330.0,129.0,0.7199483859136265,0.2322304323057375,-9.7561095948776,,,,,,,,,,
acc,1778674330.0,129.0,0.7315094024959856,0.22291430387687766,-9.761733537220742,,,,,,,,,,
acc,1778674330.0,129.0,0.7422909242542468,0.21474773588486232,-9.764573135655601,,,,,,,,,,
acc,1778674330.0,129.0,0.7515901019310888,0.20977908221112726,-9.772178968733527,,,,,,,,,,
acc,1778674330.0,129.0,0.7611242441132735,0.2125228518263372,-9.774213715459554,,,,,,,,,,
acc,1778674330.0,129.0,0.7726660517748977,0.21836539201939217,-9.776904401348935,,,,,,,,,,
acc,1778674330.0,129.0,0.782718606532409,0.22486477287921325,-9.779961101825636,,,,,,,,,,
acc,1778674330.0,129.0,0.7933897449745335,0.22850085679345042,-9.783344996504772,,,,,,,,,,
acc,1778674330.0,129.0,0.8028990189043752,0.22965463379642612,-9.786982114320582,,,,,,,,,,
acc,1778674330.0,129.0,0.8112924716175577,0.22976852622117386,-9.791296113780025,,,,,,,,,,
acc,1778674330.0,129.0,0.8217039554124508,0.22778708014731183,-9.798659111475358,,,,,,,,,,
acc,1778674330.0,129.0,0.830600963351981,0.22479423969910994,-9.799352831642805,,,,,,,,,,
acc,1778674330.0,129.0,0.8380327611338837,0.22495229919437676,-9.804938778511433,,,,,,,,,,
acc,1778674330.0,129.0,0.8461069486928211,0.22407951324641306,-9.808060203242697,,,,,,,,,,
acc,1778674330.0,129.0,0.8530428705898266,0.22495399110636594,-9.81012385402272,,,,,,,,,,
acc,1778674330.0,129.0,0.8599157648093423,0.227914826008003,-9.81419205785935,,,,,,,,,,
acc,1778674330.0,129.0,0.8667262040925541,0.22839949007921112,-9.817229396766821,,,,,,,,,,
acc,1778674330.0,129.0,0.8741846886101833,0.2306190826230498,-9.820878069784474,,,,,,,,,,
acc,1778674331.0,130.0,0.882285329485935,0.2289848691995601,-9.826268413849633,,,,,,,,,,
acc,1778674331.0,130.0,0.8913417587701092,0.2221474989660223,-9.82742117711824,,,,,,,,,,
acc,1778674331.0,130.0,0.89893152012584,0.21537226085743344,-9.830338301197104,,,,,,,,,,
acc,1778674331.0,130.0,0.905742388727908,0.2117822938606832,-9.834577784428953,,,,,,,,,,
acc,1778674331.0,130.0,0.912136395168382,0.21276851824670615,-9.83423517403455,,,,,,,,,,
acc,1778674331.0,130.0,0.9181173275311354,0.21825385517424678,-9.83808427498562,,,,,,,,,,
acc,1778674331.0,130.0,0.9237244429242603,0.22265994604203068,-9.837390333215069,,,,,,,,,,
acc,1778674331.0,130.0,0.9296000731011627,0.22457673283943982,-9.84025236055945,,,,,,,,,,
acc,1778674331.0,130.0,0.9347478814304239,0.22473676884948898,-9.840248649730809,,,,,,,,,,
acc,1778674331.0,130.0,0.9391389782823517,0.22801905418029683,-9.842339267078207,,,,,,,,,,
acc,1778674331.0,130.0,0.9438451344059285,0.22711840020746674,-9.845440295832644,,,,,,,,,,
acc,1778674331.0,130.0,0.9485085250406854,0.22413163614610412,-9.844005070613445,,,,,,,,,,
acc,1778674331.0,130.0,0.9538394714366003,0.22081704236048533,-9.843931764031813,,,,,,,,,,
acc,1778674331.0,130.0,0.9601513839232293,0.2157932360633417,-9.839670516512486,,,,,,,,,,
acc,1778674331.0,130.0,0.9681452718735577,0.2156781180576111,-9.83654838939084,,,,,,,,,,
acc,1778674331.0,130.0,0.9753920799890096,0.21730337882678086,-9.833774100881877,,,,,,,,,,
acc,1778674331.0,130.0,0.983247473635264,0.22274750685157443,-9.831025022714666,,,,,,,,,,
acc,1778674331.0,130.0,0.9889371806952916,0.22849713419586193,-9.828336420159278,,,,,,,,,,
acc,1778674331.0,130.0,0.9945751846036885,0.23071583943406962,-9.828050525901542,,,,,,,,,,
acc,1778674331.0,130.0,1.0005169260547242,0.23082008853703506,-9.823933593380259,,,,,,,,,,
acc,1778674331.0,130.0,1.0060497032223001,0.23195279036167651,-9.822693802528093,,,,,,,,,,
acc,1778674331.0,130.0,1.0115322032817913,0.23275572266815525,-9.819370974283826,,,,,,,,,,
acc,1778674331.0,130.0,1.016964883108203,0.23319639684471694,-9.8156878758169,,,,,,,,,,
acc,1778674331.0,130.0,1.0227031662854618,0.23363306655434746,-9.811434805705792,,,,,,,,,,
acc,1778674331.0,130.0,1.0294541993007682,0.2350951682338137,-9.804345158932287,,,,,,,,,,
acc,1778674331.0,130.0,1.0371732847969495,0.23618902182049312,-9.799449734657607,,,,,,,,,,
acc,1778674331.0,130.0,1.0448222259001716,0.23521412622660773,-9.791475092187577,,,,,,,,,,
acc,1778674331.0,130.0,1.0537860309304177,0.2328282243751014,-9.785631725574298,,,,,,,,,,
acc,1778674331.0,130.0,1.062313418856413,0.2336232014921293,-9.777072716621726,,,,,,,,,,
acc,1778674331.0,130.0,1.071828211641488,0.23405599276914663,-9.771360226378672,,,,,,,,,,
acc,1778674331.0,130.0,1.0816115130547732,0.23341994771755561,-9.763321369725254,,,,,,,,,,
acc,1778674331.0,130.0,1.091980341447794,0.23140532067386546,-9.755675030682884,,,,,,,,,,
acc,1778674331.0,130.0,1.1018999850957738,0.22873456254942362,-9.74777870756288,,,,,,,,,,
acc,1778674331.0,130.0,1.1110550493016698,0.22850184492768968,-9.741657977740285,,,,,,,,,,
