sensor,time,t,ax,ay,az,wx,wy,wz,lat,lon,alt,v_kmh,satellites,x,y
acc,1778672777.0,196.0,-0.035156,0.203125,-9.796875,,,,,,,,,,
acc,1778672777.0,196.0,-0.047365183714591,0.203125,-9.80908418371459,,,,,,,,,,
acc,1778672777.0,196.0,-0.053761044949018816,0.203125,-9.807106587298572,,,,,,,,,,
acc,1778672777.0,196.0,-0.05769742038775171,0.203125,-9.80588946239945,,,,,,,,,,
acc,1778672777.0,196.0,-0.05405871755398885,0.203125,-9.804434321183258,,,,,,,,,,
acc,1778672777.0,196.0,-0.05686198477162342,0.203125,-9.803926330507238,,,,,,,,,,
acc,1778672777.0,196.0,-0.05898195102682629,0.203125,-9.80354216338812,,,,,,,,,,
acc,1778672777.0,196.0,-0.06064143139949072,0.203125,-9.803241442660873,,,,,,,,,,
acc,1778672777.0,196.0,-0.061975862507403445,0.1992858087646532,-9.802999625342729,,,,,,,,,,
acc,1778672777.0,196.0,-0.0630723107320854,0.1996296319404328,-9.805949459275306,,,,,,,,,,
acc,1778672777.0,196.0,-0.06398929607861509,0.19991717932013567,-9.805524274603366,,,,,,,,,,
acc,1778672777.0,196.0,-0.06773956908101847,0.20016124074092634,-9.80813543082978,,,,,,,,,,
acc,1778672777.0,196.0,-0.06819815617991667,0.2003710032613461,-9.807614914886258,,,,,,,,,,
acc,1778672777.0,196.0,-0.06859655773284386,0.2005532362855239,-9.804319436839677,,,,,,,,,,
acc,1778672777.0,196.0,-0.0689459189583379,0.1982857833846777,-9.804099569285347,,,,,,,,,,
acc,1778672777.0,196.0,-0.06925479314868649,0.19856924368088205,-9.803905181906691,,,,,,,,,,
acc,1778672777.0,196.0,-0.07169423105701508,0.19665723980029873,-9.805896507562645,,,,,,,,,,
acc,1778672777.0,196.0,-0.07388063985869513,0.19699727987042703,-9.805422205181365,,,,,,,,,,
acc,1778672777.0,196.0,-0.0738975659211758,0.19730381176090697,-9.805190034428088,,,,,,,,,,
acc,1778672777.0,196.0,-0.07391290353954376,0.1975815768441423,-9.804979651983027,,,,,,,,,,
acc,1778672777.0,196.0,-0.07392686734900063,0.19605244781263068,-9.80639194035828,,,,,,,,,,
acc,1778672777.0,196.0,-0.07393963497782723,0.19465430843221201,-9.806146714760875,,,,,,,,,,
acc,1778672777.0,196.0,-0.07559005494266584,0.19337092244449738,-9.807560358448331,,,,,,,,,,
acc,1778672777.0,196.0,-0.07553474800589303,0.1921886308600587,-9.808705083125817,,,,,,,,,,
acc,1778672777.0,196.0,-0.07548362880363943,0.19109586011276652,-9.80672779431522,,,,,,,,,,
acc,1778672777.0,196.0,-0.07543623555299504,0.1900827387094565,-9.806504932149895,,,,,,,,,,
acc,1778672777.0,196.0,-0.07680620515385646,0.1891407954434644,-9.806156331372575,,,,,,,,,,
acc,1778672777.0,196.0,-0.07671562016928175,0.1882627196190513,-9.805968126618598,,,,,,,,,,
acc,1778672777.0,196.0,-0.07663096965169157,0.18744216891333582,-9.805792251666343,,,,,,,,,,
acc,1778672777.0,196.0,-0.07655168319826826,0.18667361418783326,-9.805627521412976,,,,,,,,,,
acc,1778672777.0,196.0,-0.07647726127023995,0.18595221321707986,-9.805472897987022,,,,,,,,,,
acc,1778672777.0,196.0,-0.07640726452053193,0.18527370723736722,-9.803995607475414,,,,,,,,,,
acc,1778672777.0,196.0,-0.07634130499375821,0.1858117878998623,-9.803898711517064,,,,,,,,,,
acc,1778672777.0,196.0,-0.076279038826213,0.1851736722937507,-9.80483871010849,,,,,,,,,,
acc,1778672777.0,196.0,-0.0762201601558068,0.1845702724068696,-9.804722735315664,,,,,,,,,,
acc,1778672777.0,196.0,-0.07507587011365667,0.1839987908081265,-9.804504051058125,,,,,,,,,,
acc,1778672777.0,196.0,-0.07505257239886887,0.18345672304472913,-9.804402823835574,,,,,,,,,,
acc,1778672777.0,196.0,-0.07503044221745371,0.18294182027196576,-9.804306669477963,,,,,,,,,,
acc,1778672777.0,196.0,-0.07500939253499164,0.18245205746061863,-9.804215209825777,,,,,,,,,,
acc,1778672777.0,196.0,-0.07399853849831704,0.18297641250511146,-9.804029030425218,,,,,,,,,,
acc,1778672777.0,196.0,-0.07400400950111434,0.18250702985582956,-9.804820887781126,,,,,,,,,,
acc,1778672777.0,196.0,-0.0740092325982802,0.1830079341375724,-9.805576863982319,,,,,,,,,,
acc,1778672777.0,196.0,-0.07401422458910988,0.18348667491179108,-9.806299390510922,,,,,,,,,,
acc,1778672777.0,196.0,-0.07401900078572114,0.18303361237813315,-9.806170679168368,,,,,,,,,,
acc,1778672777.0,196.0,-0.07313012501521954,0.18259969306595109,-9.805153978970955,,,,,,,,,,
acc,1778672777.0,196.0,-0.07315455963200065,0.18218370277101031,-9.805055848270149,,,,,,,,,,
acc,1778672777.0,196.0,-0.0731780065256182,0.18264498588569006,-9.805736102935473,,,,,,,,,,
acc,1778672777.0,196.0,-0.07320052577573224,0.18224299017935375,-9.80562891186743,,,,,,,,,,
acc,1778672777.0,196.0,-0.07322217267236952,0.1826868214491054,-9.806273108531757,,,,,,,,,,
acc,1778672777.0,196.0,-0.07324299818369585,0.1822977155134153,-9.806892861337626,,,,,,,,,,
acc,1778672777.0,196.0,-0.07326304937002202,0.18272559562073923,-9.806767297974492,,,,,,,,,,
acc,1778672777.0,196.0,-0.0732823697511177,0.18313788078942128,-9.806646311017015,,,,,,,,,,
acc,1778672777.0,196.0,-0.07330099963286368,0.18275845528642107,-9.806529648064073,,,,,,,,,,
acc,1778672777.0,196.0,-0.0733189763983988,0.18315728366621636,-9.806417075017164,,,,,,,,,,
acc,1778672777.0,196.0,-0.07408970683458156,0.18354239246032894,-9.80623304110253,,,,,,,,,,
acc,1778672777.0,196.0,-0.07409216364278422,0.18391449805985657,-9.806129442283067,,,,,,,,,,
acc,1778672777.0,196.0,-0.07409453900264625,0.18427426757894147,-9.806687689564052,,,,,,,,,,
acc,1778672777.0,196.0,-0.07409683702088965,0.18462232301740175,-9.80657862985326,,,,,,,,,,
acc,1778672777.0,196.0,-0.0740990615311158,0.1842479325994679,-9.807113245328425,,,,,,,,,,
acc,1778672777.0,196.0,-0.0741012161161239,0.18458704186771682,-9.806999492326748,,,,,,,,,,
acc,1778672777.0,196.0,-0.07410330412807664,0.1849156732295453,-9.806889254101627,,,,,,,,,,
acc,1778672777.0,196.0,-0.07478888025337932,0.18523432085324604,-9.806714013231229,,,,,,,,,,
acc,1778672777.0,196.0,-0.07477903347768569,0.18486849120198323,-9.806611498623768,,,,,,,,,,
acc,1778672777.0,196.0,-0.07476947610692364,0.18518005154677603,-9.806511997005927,,,,,,,,,,
acc,1778672777.0,196.0,-0.07476019512646842,0.18548260185508114,-9.806415372882679,,,,,,,,,,
acc,1778672777.0,196.0,-0.075401988628466,0.18512571411287004,-9.806256421133284,,,,,,,,,,
acc,1778672777.0,196.0,-0.07538250653635885,0.18477882555570954,-9.806166248957258,,,,,,,,,,
acc,1778672777.0,196.0,-0.07536356189615998,0.18444150660308553,-9.806078564358428,,,,,,,,,,
acc,1778672777.0,196.0,-0.07534513195822147,0.18411335218594793,-9.805993262040852,,,,,,,,,,
acc,1778672777.0,196.0,-0.07532719525279732,0.18441616423561824,-9.80522584477871,,,,,,,,,,
acc,1778672777.0,196.0,-0.07530973150136042,0.18409540842654984,-9.804478662729522,,,,,,,,,,
acc,1778672777.0,196.0,-0.07529272153518847,0.18378298726770428,-9.803750895764512,,,,,,,,,,
acc,1778672777.0,196.0,-0.0752761472205332,0.18347856769747561,-9.803705051488057,,,,,,,,,,
acc,1778672777.0,196.0,-0.07525999138975999,0.18318183439881655,-9.803660364731003,,,,,,,,,,
acc,1778672777.0,196.0,-0.07524423777790945,0.18289248863406923,-9.804148831151075,,,,,,,,,,
acc,1778672777.0,196.0,-0.07522887096418951,0.18261024717035207,-9.804098352291385,,,,,,,,,,
acc,1778672777.0,196.0,-0.07521387631795642,0.18233484128739702,-9.803411088766994,,,,,,,,,,
acc,1778672777.0,196.0,-0.07519923994878822,0.18206601586055013,-9.803372395565193,,,,,,,,,,
acc,1778672777.0,196.0,-0.07518494866029317,0.18180352851237536,-9.803847181813772,,,,,,,,,,
acc,1778672777.0,196.0,-0.07517098990733159,0.1815471488269478,-9.803802872963589,,,,,,,,,,
acc,1778672777.0,196.0,-0.07515735175635996,0.18129665762149816,-9.80375958179067,,,,,,,,,,
acc,1778672777.0,196.0,-0.0745891487100936,0.18105184627058335,-9.803661789086824,,,,,,,,,,
acc,1778672777.0,196.0,-0.07458393455097138,0.18081251607841686,-9.803015918685281,,,,,,,,,,
acc,1778672777.0,196.0,-0.07457883568166994,0.18057847769540217,-9.80238432906825,,,,,,,,,,
acc,1778672777.0,196.0,-0.07457384816872432,0.18034955057528004,-9.802362106079004,,,,,,,,,,
acc,1778672777.0,196.0,-0.07456896825945014,0.18012556246962963,-9.802823845297564,,,,,,,,,,
acc,1778672777.0,196.0,-0.07456419237167977,0.18043942731154242,-9.802795967341178,,,,,,,,,,
acc,1778672777.0,196.0,-0.07455951708418897,0.1802176113407297,-9.802768676611782,,,,,,,,,,
acc,1778672777.0,196.0,-0.07455493912776033,0.18000041317878754,-9.802741954026205,,,,,,,,,,
acc,1778672777.0,196.0,-0.0745504553768348,0.17978768453560073,-9.802142277756602,,,,,,,,,,
acc,1778672777.0,196.0,-0.07454606284170641,0.17957928356651648,-9.802124237740408,,,,,,,,,,
acc,1778672777.0,196.0,-0.07402768558132701,0.17937507452587428,-9.802055157234243,,,,,,,,,,
acc,1778672777.0,196.0,-0.07403018612573563,0.17917492744260693,-9.80203850356658,,,,,,,,,,
acc,1778672777.0,196.0,-0.0740326374773916,0.1794858688405986,-9.802022177523474,,,,,,,,,,
acc,1778672777.0,196.0,-0.07403504112695808,0.17928693627018033,-9.802006169177083,,,,,,,,,,
acc,1778672777.0,196.0,-0.07403739850365182,0.17909183336846388,-9.8019904690088,,,,,,,,,,
acc,1778672777.0,196.0,-0.07403971097837968,0.1793978665872611,-9.801975067888362,,,,,,,,,,
acc,1778672777.0,196.0,-0.07404197986668543,0.17920379241560347,-9.802404866092404,,,,,,,,,,
acc,1778672777.0,196.0,-0.07404420643152,0.1795046741210393,-9.802384441053343,,,,,,,,,,
acc,1778672777.0,196.0,-0.07404639188584755,0.179800000452891,-9.802364393134994,,,,,,,,,,
acc,1778672777.0,196.0,-0.07404853739509834,0.18008992889888978,-9.802344711646464,,,,,,,,,,
acc,1778672777.0,196.0,-0.07405064407947903,0.18037461083558076,-9.802325386311718,,,,,,,,,,
acc,1778672777.0,196.0,-0.0740527130161499,0.18065419182253364,-9.802306407249596,,,,,,,,,,
acc,1778672777.0,196.0,-0.07405474524127777,0.1809288118797659,-9.802287764954984,,,,,,,,,,
acc,1778672777.0,196.0,-0.074056741751973,0.18119860574948476,-9.802269450281052,,,,,,,,,,
acc,1778672777.0,196.0,-0.07453097607030457,0.18099141849065284,-9.80220422958432,,,,,,,,,,
acc,1778672777.0,196.0,-0.07452722385612502,0.18125762460800826,-9.802187112046356,,,,,,,,,,
acc,1778672777.0,196.0,-0.07452353575055172,0.18105186740364876,-9.802170286970776,,,,,,,,,,
acc,1778672777.0,196.0,-0.0745199100833445,0.18084959359839398,-9.80257231034429,,,,,,,,,,
acc,1778672777.0,196.0,-0.07451634524433605,0.18111348717346865,-9.802551088945124,,,,,,,,,,
acc,1778672777.0,196.0,-0.07451283968074268,0.1809124579867351,-9.80253022041105,,,,,,,,,,
acc,1778672777.0,196.0,-0.07450939189461804,0.18117309022657724,-9.802509695824831,,,,,,,,,,
acc,1778672777.0,196.0,-0.07450600044044044,0.181429464104386,-9.80248950658131,,,,,,,,,,
acc,1778672777.0,196.0,-0.07450266392282616,0.1812275590138897,-9.802469644373803,,,,,,,,,,
acc,1778672777.0,196.0,-0.07495145734736575,0.1810288968021164,-9.802404895860546,,,,,,,,,,
acc,1778672777.0,196.0,-0.07494301773608014,0.1808333987103191,-9.802791275170078,,,,,,,,,,
acc,1778672777.0,196.0,-0.07493471143402368,0.1806409886398814,-9.802768212264368,,,,,,,,,,
acc,1778672777.0,196.0,-0.07492653526602802,0.18045159304009953,-9.80314713838461,,,,,,,,,,
acc,1778672777.0,196.0,-0.07491848616231542,0.18026514080157346,-9.803520175685563,,,,,,,,,,
acc,1778672777.0,196.0,-0.07491056115412457,0.18008156315488374,-9.803887461755055,,,,,,,,,,
acc,1778672777.0,196.0,-0.07490275736955165,0.17990079357425107,-9.804249129692037,,,,,,,,,,
acc,1778672777.0,196.0,-0.0748950720295942,0.17972276768589557,-9.804210148385382,,,,,,,,,,
acc,1778672777.0,196.0,-0.07488750244438645,0.17954742318083128,-9.804171754205832,,,,,,,,,,
acc,1778672777.0,196.0,-0.07444433973224342,0.17937469973184755,-9.804569640221256,,,,,,,,,,
acc,1778672777.0,196.0,-0.0744418356674016,0.17963862252651763,-9.804527539342367,,,,,,,,,,
acc,1778672777.0,196.0,-0.07443936848104275,0.1798986584121417,-9.80448605850195,,,,,,,,,,
acc,1778672777.0,196.0,-0.07443693736612605,0.17972394768983577,-9.80397114820575,,,,,,,,,,
acc,1778672778.0,197.0,-0.07443454154043846,0.17955177300836653,-9.803936078317761,,,,,,,,,,
acc,1778672778.0,197.0,-0.07443218024563393,0.17981002178170352,-9.803901513889835,,,,,,,,,,
acc,1778672778.0,197.0,-0.074003363389577,0.17963808507229562,-9.803824798497034,,,,,,,,,,
acc,1778672778.0,197.0,-0.0740057098628664,0.17946859220416017,-9.803791677071793,,,,,,,,,,
acc,1778672778.0,197.0,-0.0740080232111978,0.1793014920520062,-9.804140336618389,,,,,,,,,,
acc,1778672778.0,197.0,-0.07401030412144835,0.17955905253432822,-9.804104018190321,,,,,,,,,,
acc,1778672778.0,197.0,-0.07401255326036939,0.17939203905874695,-9.803605123911392,,,,,,,,,,
acc,1778672778.0,197.0,-0.07401477127533172,0.179227336743436,-9.803574782191768,,,,,,,,,,
acc,1778672778.0,197.0,-0.07401695879503822,0.17948330763782355,-9.803544857637277,,,,,,,,,,
acc,1778672778.0,197.0,-0.07443626670860104,0.17973578161638656,-9.803473629001513,,,,,,,,,,
acc,1778672778.0,197.0,-0.07401801362037984,0.17998482811325986,-9.803403367336072,,,,,,,,,,
acc,1778672778.0,197.0,-0.07360540338041753,0.1802305146072286,-9.80333405360366,,,,,,,,,,
acc,1778672778.0,197.0,-0.07361189974672806,0.18005933277500588,-9.803307023514362,,,,,,,,,,
acc,1778672778.0,197.0,-0.07361830952858302,0.18030286074992344,-9.803280353685778,,,,,,,,,,
acc,1778672778.0,197.0,-0.07362463438819641,0.18013185559979725,-9.803254037201768,,,,,,,,,,
acc,1778672778.0,197.0,-0.07363087594240951,0.17996310277673533,-9.803597258144658,,,,,,,,,,
acc,1778672778.0,197.0,-0.07363703576426905,0.1797965597502924,-9.803567761564373,,,,,,,,,,
acc,1778672778.0,197.0,-0.07364311538454044,0.17963218513318394,-9.803538649032953,,,,,,,,,,
acc,1778672778.0,197.0,-0.07364911629315878,0.17987698805276,-9.803509913415775,,,,,,,,,,
acc,1778672778.0,197.0,-0.07365503994062098,0.17971259940167397,-9.803481547767072,,,,,,,,,,
acc,1778672778.0,197.0,-0.07366088773932139,0.1795503156489155,-9.803818094293783,,,,,,,,,,
acc,1778672778.0,197.0,-0.07366666106483384,0.17979418115089615,-9.80415035481579,,,,,,,,,,
acc,1778672778.0,197.0,-0.07367236125714235,0.18003495750339987,-9.804115582741646,,,,,,,,,,
acc,1778672778.0,197.0,-0.07367798962182318,0.17987049490166343,-9.804443236373402,,,,,,,,,,
acc,1778672778.0,197.0,-0.07368354743118,0.17970809394887985,-9.804405614153193,,,,,,,,,,
acc,1778672778.0,197.0,-0.074089429108896,0.1795477184082908,-9.803968067961595,,,,,,,,,,
acc,1778672778.0,197.0,-0.07409075433928289,0.17938933295286566,-9.803935471139331,,,,,,,,,,
acc,1778672778.0,197.0,-0.07409206320660508,0.1792329031358555,-9.80390327680098,,,,,,,,,,
acc,1778672778.0,197.0,-0.0740933559919542,0.17947623174026925,-9.80422953382786,,,,,,,,,,
acc,1778672778.0,197.0,-0.07409463296952115,0.17931956984727213,-9.80419448480001,,,,,,,,,,
acc,1778672778.0,197.0,-0.07409589440681535,0.17916481446274496,-9.804159862303893,,,,,,,,,,
acc,1778672778.0,197.0,-0.07409714056487557,0.17865606075692567,-9.80408612000151,,,,,,,,,,
acc,1778672778.0,197.0,-0.07449301114949325,0.17850861843125698,-9.804447378261003,,,,,,,,,,
acc,1778672778.0,197.0,-0.07449024815271828,0.17836294567228822,-9.804410408264236,,,,,,,,,,
acc,1778672778.0,197.0,-0.07448751816801526,0.17821901340018703,-9.804373879982133,,,,,,,,,,
acc,1778672778.0,197.0,-0.07448482065677721,0.17807679321811745,-9.80469097051309,,,,,,,,,,
acc,1778672778.0,197.0,-0.0744821550929552,0.17793625739133773,-9.804651762589705,,,,,,,,,,
acc,1778672778.0,197.0,-0.07447952096267631,0.1777973788270613,-9.804613017024018,,,,,,,,,,
acc,1778672778.0,197.0,-0.07447691776387559,0.1780504595480328,-9.804574726431127,,,,,,,,,,
acc,1778672778.0,197.0,-0.07447434500594122,0.1779109231324282,-9.804536883594597,,,,,,,,,,
acc,1778672778.0,197.0,-0.07408280199374587,0.17777301170512594,-9.804460584427344,,,,,,,,,,
acc,1778672778.0,197.0,-0.07408415604434648,0.17763669984458585,-9.804424002808855,,,,,,,,,,
acc,1778672778.0,197.0,-0.07408549445257631,0.17750196269673713,-9.80396135034612,,,,,,,,,,
acc,1778672778.0,197.0,-0.07408681745985109,0.17736877595833056,-9.803929833853168,,,,,,,,,,
acc,1778672778.0,197.0,-0.07408812530227456,0.17723711586087534,-9.80389867861517,,,,,,,,,,
acc,1778672778.0,197.0,-0.07408941821079243,0.17749286174984275,-9.803867879130566,,,,,,,,,,
acc,1778672778.0,197.0,-0.07409069641134104,0.17736037913047156,-9.803837430017134,,,,,,,,,,
acc,1778672778.0,197.0,-0.07409196012499088,0.17761414524423266,-9.803807326008565,,,,,,,,,,
acc,1778672778.0,197.0,-0.07409320956808511,0.17786504569025643,-9.804123332685435,,,,,,,,,,
acc,1778672778.0,197.0,-0.07409444495237348,0.1781131229899691,-9.804435783636924,,,,,,,,,,
acc,1778672778.0,197.0,-0.07371256892764834,0.17835841876834924,-9.804016852795073,,,,,,,,,,
acc,1778672778.0,197.0,-0.07371752873187022,0.1786009737790119,-9.804329477057914,,,,,,,,,,
acc,1778672778.0,197.0,-0.07372243330844343,0.17884082792844852,-9.803874518732837,,,,,,,,,,
acc,1778672778.0,197.0,-0.07334574087969814,0.17907802029945522,-9.803806151878934,,,,,,,,,,
acc,1778672778.0,197.0,-0.0733542591805989,0.17931258917378076,-9.803776642706483,,,,,,,,,,
acc,1778672778.0,197.0,-0.07336268357187169,0.1795445720540239,-9.803747458856586,,,,,,,,,,
acc,1778672778.0,197.0,-0.07337101538788691,0.17977400568480872,-9.803718595706705,,,,,,,,,,
acc,1778672778.0,197.0,-0.0733792559362331,0.18000092607326507,-9.803690048727082,,,,,,,,,,
acc,1778672778.0,197.0,-0.07338740649843632,0.1802253685088406,-9.803661813478243,,,,,,,,,,
acc,1778672778.0,197.0,-0.07339546833065637,0.18044736758246913,-9.803974712989787,,,,,,,,,,
acc,1778672778.0,197.0,-0.07340344266436026,0.18066695720511944,-9.803943787970042,,,,,,,,,,
acc,1778672778.0,197.0,-0.07341133070697424,0.18088417062574744,-9.803913197593134,,,,,,,,,,
acc,1778672778.0,197.0,-0.07341913364251478,0.1807216507501274,-9.803882937267367,,,,,,,,,,
acc,1778672778.0,197.0,-0.07304988104033824,0.18093785089424713,-9.803815308225376,,,,,,,,,,
acc,1778672778.0,197.0,-0.0730611511732707,0.18115173171257393,-9.803786057945262,,,,,,,,,,
acc,1778672778.0,197.0,-0.07307230074188537,0.18136332450154907,-9.803757120575392,,,,,,,,,,
acc,1778672778.0,197.0,-0.07308333136419123,0.1815726599672063,-9.804066683107932,,,,,,,,,,
acc,1778672778.0,197.0,-0.07309424462788006,0.18140439041783082,-9.804372952097307,,,,,,,,,,
acc,1778672778.0,197.0,-0.07310504209109515,0.18161290463237598,-9.804338469958699,,,,,,,,,,
acc,1778672778.0,197.0,-0.0731157252831764,0.18181921211046415,-9.80464151897555,,,,,,,,,,
acc,1778672778.0,197.0,-0.07312629570538225,0.18164908111195202,-9.80419284759777,,,,,,,,,,
acc,1778672778.0,197.0,-0.0731367548315896,0.18148074142309475,-9.804160190139754,,,,,,,,,,
acc,1778672778.0,197.0,-0.07314710410897239,0.18131416975162082,-9.804127875672473,,,,,,,,,,
acc,1778672778.0,197.0,-0.07315734495865947,0.1811493432244542,-9.804095899758607,,,,,,,,,,
acc,1778672778.0,197.0,-0.07316747877637265,0.18098623937744515,-9.804064258040174,,,,,,,,,,
acc,1778672778.0,197.0,-0.07317750693304556,0.18082483614541017,-9.80436823181735,,,,,,,,,,
acc,1778672778.0,197.0,-0.07318743077542392,0.18066511185247014,-9.80433405096271,,,,,,,,,,
acc,1778672778.0,197.0,-0.07319725162664793,0.18017234944265775,-9.804672116424687,,,,,,,,,,
acc,1778672778.0,197.0,-0.07320697078681744,0.18001910323184547,-9.804969526372414,,,,,,,,,,
acc,1778672778.0,197.0,-0.07321658953354027,0.17986744028336749,-9.805263863631,,,,,,,,,,
acc,1778672778.0,197.0,-0.07322610912246456,0.1797173407988752,-9.805221291231371,,,,,,,,,,
acc,1778672778.0,197.0,-0.0732355307877955,0.17956878531812104,-9.80517915675426,,,,,,,,,,
acc,1778672778.0,197.0,-0.07324485574279686,0.1794217547110488,-9.805137454773849,,,,,,,,,,
acc,1778672778.0,197.0,-0.07325408518027819,0.17927623017011354,-9.805096179955793,,,,,,,,,,
acc,1778672778.0,197.0,-0.07326322027306778,0.1791321932028234,-9.805055327055108,,,,,,,,,,
acc,1778672778.0,197.0,-0.07364179789771644,0.17898962562449566,-9.804977939233831,,,,,,,,,,
acc,1778672778.0,197.0,-0.07364725439134841,0.17884850955122042,-9.80493826409732,,,,,,,,,,
acc,1778672778.0,197.0,-0.07365265544020844,0.17870882739302454,-9.804898992109614,,,,,,,,,,
acc,1778672778.0,197.0,-0.0736580017133341,0.17893931522094367,-9.804860118406024,,,,,,,,,,
acc,1778672778.0,197.0,-0.07366329386890379,0.17879897064506917,-9.804821638200817,,,,,,,,,,
acc,1778672778.0,197.0,-0.07366853255447926,0.1786600440591913,-9.804783546785456,,,,,,,,,,
acc,1778672778.0,197.0,-0.07367371840724146,0.17852251856568024,-9.804745839526886,,,,,,,,,,
acc,1778672778.0,197.0,-0.07367885205421963,0.17838637753612166,-9.804708511865863,,,,,,,,,,
acc,1778672778.0,197.0,-0.07368393411251421,0.17825160460540732,-9.805002338919076,,,,,,,,,,
acc,1778672778.0,197.0,-0.07368896518951348,0.17811818366598892,-9.804962646833225,,,,,,,,,,
acc,1778672778.0,197.0,-0.07369394588310432,0.1779860988622898,-9.804923352241305,,,,,,,,,,
acc,1778672778.0,197.0,-0.07369887678187712,0.17785533458526984,-9.804884450499703,,,,,,,,,,
acc,1778672778.0,197.0,-0.07370375846532513,0.1780925062843863,-9.804845937036573,,,,,,,,,,
acc,1778672778.0,197.0,-0.07370859150403852,0.17796089814436378,-9.804807807350313,,,,,,,,,,
acc,1778672778.0,197.0,-0.07371337645989298,0.17783059934531828,-9.80477005700807,,,,,,,,,,
acc,1778672778.0,197.0,-0.07371811388623342,0.17770159481915324,-9.805062084222776,,,,,,,,,,
acc,1778672778.0,197.0,-0.07372280432805267,0.17757386972520678,-9.805021994917206,,,,,,,,,,
acc,1778672778.0,197.0,-0.07372744832216545,0.17744740944551468,-9.804982302601168,,,,,,,,,,
acc,1778672778.0,197.0,-0.07373204639737771,0.17732219958019896,-9.804943002754944,,,,,,,,,,
acc,1778672778.0,197.0,-0.0737365990746515,0.17719822594297854,-9.804904090925863,,,,,,,,,,
acc,1778672778.0,197.0,-0.07374110686726548,0.17744049853089758,-9.804865562726919,,,,,,,,,,
acc,1778672778.0,197.0,-0.07374557028097128,0.17768038596185493,-9.804827413835444,,,,,,,,,,
acc,1778672778.0,197.0,-0.07374998981414571,0.17791791502125331,-9.8047896399918,,,,,,,,,,
acc,1778672778.0,197.0,-0.07338988495058331,0.17815311210610485,-9.804715791696557,,,,,,,,,,
acc,1778672778.0,197.0,-0.07339761738710693,0.17838600323279527,-9.804679095309188,,,,,,,,,,
acc,1778672778.0,197.0,-0.07340527411276092,0.17825247841586003,-9.80464275822841,,,,,,,,,,
acc,1778672778.0,197.0,-0.07341285596681163,0.1781202592767788,-9.804606776471251,,,,,,,,,,
acc,1778672778.0,197.0,-0.07342036377662227,0.17835313433382263,-9.804898571557123,,,,,,,,,,
acc,1778672778.0,197.0,-0.07342779835788528,0.17858373800911392,-9.80486024068826,,,,,,,,,,
acc,1778672778.0,197.0,-0.07343516051484893,0.1788120952485908,-9.804822283221236,,,,,,,,,,
acc,1778672778.0,197.0,-0.07344245104053812,0.178674903960878,-9.804784695067411,,,,,,,,,,
acc,1778672778.0,197.0,-0.07344967071696977,0.17890221967610048,-9.804747472194899,,,,,,,,,,
acc,1778672778.0,197.0,-0.07345682031536271,0.17876430524454612,-9.804710610627485,,,,,,,,,,
acc,1778672778.0,197.0,-0.07346390059634247,0.17899060432756717,-9.805000697985463,,,,,,,,,,
acc,1778672778.0,197.0,-0.0738336348378875,0.17921471187464466,-9.804925244252603,,,,,,,,,,
acc,1778672778.0,197.0,-0.07383721186774762,0.1794366515386238,-9.80488677662009,,,,,,,,,,
acc,1778672778.0,197.0,-0.07384075433361947,0.17965644665244737,-9.804848680691157,,,,,,,,,,
acc,1778672778.0,197.0,-0.07384426260650265,0.17951180633219616,-9.804810952476045,,,,,,,,,,
acc,1778672778.0,197.0,-0.0738477370524295,0.17936856064171242,-9.804773588038417,,,,,,,,,,
acc,1778672778.0,197.0,-0.07385117803255607,0.17922669469112698,-9.805062429472548,,,,,,,,,,
acc,1778672778.0,197.0,-0.0738545859032508,0.17908619378795504,-9.805348491647448,,,,,,,,,,
acc,1778672778.0,197.0,-0.07385796101618115,0.17894704343352513,-9.805306188673288,,,,,,,,,,
acc,1778672778.0,197.0,-0.07386130371839819,0.17880922931949342,-9.80526429192837,,,,,,,,,,
acc,1778672778.0,197.0,-0.07422615008196166,0.1790342823094163,-9.805186645397786,,,,,,,,,,
acc,1778672779.0,198.0,-0.07422608392682331,0.178895753350863,-9.805145882776824,,,,,,,,,,
acc,1778672779.0,198.0,-0.07458731632413382,0.1787585508467274,-9.805069382527591,,,,,,,,,,
acc,1778672779.0,198.0,-0.07458391072963078,0.17898385241458528,-9.805029730492082,,,,,,,,,,
acc,1778672779.0,198.0,-0.07458053768489492,0.17884592258230245,-9.80499045744019,,,,,,,,,,
acc,1778672779.0,198.0,-0.07457719685002796,0.17907027647890428,-9.80495155941441,,,,,,,,,,
acc,1778672779.0,198.0,-0.0742130306482912,0.1789316326152811,-9.804876949554739,,,,,,,,,,
acc,1778672779.0,198.0,-0.07421308577572468,0.1787943103861839,-9.804839123137794,,,,,,,,,,
acc,1778672779.0,198.0,-0.07421314037809658,0.1786582960834928,-9.804801656998787,,,,,,,,,,
acc,1778672779.0,198.0,-0.07421319446084101,0.1785235761708831,-9.805089037124821,,,,,,,,,,
acc,1778672779.0,198.0,-0.07421324802932427,0.17875057678605172,-9.80537368461509,,,,,,,,,,
acc,1778672779.0,198.0,-0.07421330108884598,0.17897542063708116,-9.80533131902201,,,,,,,,,,
acc,1778672779.0,198.0,-0.07421335364464023,0.1791981299037863,-9.805289355632194,,,,,,,,,,
acc,1778672779.0,198.0,-0.07421340570187662,0.17905858057643156,-9.805247790317946,,,,,,,,,,
acc,1778672779.0,198.0,-0.07421345726566136,0.1792804056639386,-9.805206619002192,,,,,,,,,,
acc,1778672779.0,198.0,-0.0742135083410383,0.17914017058170856,-9.805165837657654,,,,,,,,,,
acc,1778672779.0,198.0,-0.07385369073641455,0.17900126281592263,-9.805485310502615,,,,,,,,,,
acc,1778672779.0,198.0,-0.07385705531672991,0.17886366885210409,-9.80544198274695,,,,,,,,,,
acc,1778672779.0,198.0,-0.07422007032417784,0.17872737533881522,-9.805363098116539,,,,,,,,,,
acc,1778672779.0,198.0,-0.07422006047100639,0.17895197456183615,-9.805320916318472,,,,,,,,,,
acc,1778672779.0,198.0,-0.0742200507108319,0.17881493286149494,-9.805279132643886,,,,,,,,,,
acc,1778672779.0,198.0,-0.07422004104271451,0.17867918372629807,-9.805237743069206,,,,,,,,,,
acc,1778672779.0,198.0,-0.07422003146572552,0.1785447141164704,-9.80519674361864,,,,,,,,,,
acc,1778672779.0,198.0,-0.07422002197894721,0.17841151114648585,-9.80515613036342,,,,,,,,,,
acc,1778672779.0,198.0,-0.07422001258147269,0.17863876081964297,-9.805115899421079,,,,,,,,,,
acc,1778672779.0,198.0,-0.07422000327240572,0.17886387262228656,-9.80468101573019,,,,,,,,,,
acc,1778672779.0,198.0,-0.07421999405086051,0.17872782169846993,-9.804968313269773,,,,,,,,,,
acc,1778672779.0,198.0,-0.07421998491596161,0.17859304911918622,-9.804534967078913,,,,,,,,,,
acc,1778672779.0,198.0,-0.07421997586684376,0.1788184414606649,-9.804823488899048,,,,,,,,,,
acc,1778672779.0,198.0,-0.07421996690265167,0.17904171850010336,-9.804786355096175,,,,,,,,,,
acc,1778672779.0,198.0,-0.07421995802253994,0.1789041435603898,-9.80474956959277,,,,,,,,,,
acc,1778672779.0,198.0,-0.07386126035948055,0.1787678582867155,-9.804354449243109,,,,,,,,,,
acc,1778672779.0,198.0,-0.07386454461925358,0.17863284988024197,-9.804321642882641,,,,,,,,,,
acc,1778672779.0,198.0,-0.07350924324220952,0.17885766057126423,-9.803930598015654,,,,,,,,,,
acc,1778672779.0,198.0,-0.07351575683570934,0.17872187754776392,-9.803901693463585,,,,,,,,,,
acc,1778672779.0,198.0,-0.0735222095008832,0.17858736464225844,-9.803873059285461,,,,,,,,,,
acc,1778672779.0,198.0,-0.07352860183886013,0.17881247227297403,-9.803844692813728,,,,,,,,,,
acc,1778672779.0,198.0,-0.07353493444400175,0.17867717510415945,-9.803816591410861,,,,,,,,,,
acc,1778672779.0,198.0,-0.07318296713926034,0.1789013823459716,-9.804146993233674,,,,,,,,,,
acc,1778672779.0,198.0,-0.07319246686121383,0.17876531522726294,-9.803722132624404,,,,,,,,,,
acc,1778672779.0,198.0,-0.07320187794402482,0.1789886407118319,-9.804017482267044,,,,,,,,,,
acc,1778672779.0,198.0,-0.07321120125628777,0.17885181767119893,-9.803987815488478,,,,,,,,,,
acc,1778672779.0,198.0,-0.07322043765697162,0.17871627008999333,-9.804280636558074,,,,,,,,,,
acc,1778672779.0,198.0,-0.07322958799555518,0.17858198550180057,-9.80424856759448,,,,,,,,,,
acc,1778672779.0,198.0,-0.07323865311216012,0.1784489515775259,-9.804216797306228,,,,,,,,,,
acc,1778672779.0,198.0,-0.07324763383768133,0.1783171561234806,-9.804185322781306,,,,,,,,,,
acc,1778672779.0,198.0,-0.07325653099391492,0.17818658707950438,-9.804154141139584,,,,,,,,,,
acc,1778672779.0,198.0,-0.07326534539368369,0.17805723251712316,-9.804445221305718,,,,,,,,,,
acc,1778672779.0,198.0,-0.07363176169553706,0.17792908063774113,-9.804375902122455,,,,,,,,,,
acc,1778672779.0,198.0,-0.07363713819013923,0.17780211977086635,-9.804342988786065,,,,,,,,,,
acc,1778672779.0,198.0,-0.07400005062928984,0.17767633837236935,-9.804274624456705,,,,,,,,,,
acc,1778672779.0,198.0,-0.07400205469395534,0.17790927242185542,-9.804242646975768,,,,,,,,,,
acc,1778672779.0,198.0,-0.0743615316233046,0.178140044206853,-9.804175219016825,,,,,,,,,,
acc,1778672779.0,198.0,-0.07471767289791938,0.17836867461660683,-9.804108416734726,,,,,,,,,,
acc,1778672779.0,198.0,-0.0750705107087479,0.17823777471425667,-9.804042234091337,,,,,,,,,,
acc,1778672779.0,198.0,-0.0754200769027996,0.17810808855460492,-9.803976665113037,,,,,,,,,,
acc,1778672779.0,198.0,-0.07540909026466801,0.17833692631893128,-9.803947433332704,,,,,,,,,,
acc,1778672779.0,198.0,-0.07539820542488615,0.17820636455358257,-9.803918472403831,,,,,,,,,,
acc,1778672779.0,198.0,-0.07538742140503701,0.17807701210584087,-9.80388977972318,,,,,,,,,,
acc,1778672779.0,198.0,-0.07537673723705311,0.17794885736390467,-9.803861352715044,,,,,,,,,,
acc,1778672779.0,198.0,-0.0753661519630823,0.17782188883850364,-9.804154631784517,,,,,,,,,,
acc,1778672779.0,198.0,-0.0753556646353559,0.17769609516131674,-9.804123789853115,,,,,,,,,,
acc,1778672779.0,198.0,-0.07534527431605907,0.17757146508341787,-9.804093233211486,,,,,,,,,,
acc,1778672779.0,198.0,-0.07533498007720353,0.1774479874737483,-9.804062959130528,,,,,,,,,,
acc,1778672779.0,198.0,-0.07532478100050233,0.17768265279220935,-9.804032964909675,,,,,,,,,,
acc,1778672779.0,198.0,-0.0753146761772468,0.177558184846904,-9.804003247876528,,,,,,,,,,
acc,1778672779.0,198.0,-0.07530466470818567,0.17779179527324376,-9.8039738053865,,,,,,,,,,
acc,1778672779.0,198.0,-0.07529474570340611,0.1776663551590806,-9.803944634822466,,,,,,,,,,
acc,1778672779.0,198.0,-0.07528491828221684,0.1775420732514389,-9.803915733594424,,,,,,,,,,
acc,1778672779.0,198.0,-0.07527518157303317,0.1777757623831233,-9.803887099139152,,,,,,,,,,
acc,1778672779.0,198.0,-0.07526553471326396,0.17800729505401064,-9.80346626238949,,,,,,,,,,
acc,1778672779.0,198.0,-0.0748992196015123,0.17787993450613496,-9.803406065255915,,,,,,,,,,
acc,1778672779.0,198.0,-0.07453628295998226,0.17811047343522565,-9.803738817906378,,,,,,,,,,
acc,1778672779.0,198.0,-0.07453338577790235,0.17798219366410603,-9.804032835881232,,,,,,,,,,
acc,1778672779.0,198.0,-0.07453051530199643,0.17821175818281906,-9.80400314523616,,,,,,,,,,
acc,1778672779.0,198.0,-0.0741710401335025,0.1784392071236193,-9.803938067832917,,,,,,,,,,
acc,1778672779.0,198.0,-0.07417147795287785,0.1786645605119071,-9.803909247371822,,,,,,,,,,
acc,1778672779.0,198.0,-0.07417191173949729,0.17888783816929096,-9.804201609447295,,,,,,,,,,
acc,1778672779.0,198.0,-0.07417234153147932,0.1791090597160371,-9.804170388278825,,,,,,,,,,
acc,1778672779.0,198.0,-0.07417276736655595,0.17897173060879418,-9.804139454549896,,,,,,,,,,
acc,1778672779.0,198.0,-0.07417318928207732,0.17919215152122808,-9.804108805547301,,,,,,,,,,
acc,1778672779.0,198.0,-0.07417360731501622,0.17941054405990756,-9.804078438585243,,,,,,,,,,
acc,1778672779.0,198.0,-0.07417402150197258,0.1796269273456946,-9.804048351005012,,,,,,,,,,
acc,1778672779.0,198.0,-0.07417443187917784,0.17984132030694952,-9.804018540174663,,,,,,,,,,
acc,1778672779.0,198.0,-0.07417483848249931,0.180053741681793,-9.803989003488706,,,,,,,,,,
acc,1778672779.0,198.0,-0.07417524134744441,0.1799078564745054,-9.803959738367793,,,,,,,,,,
acc,1778672779.0,198.0,-0.07453195987035656,0.1797633122766525,-9.80357442289722,,,,,,,,,,
acc,1778672779.0,198.0,-0.07488540003545535,0.17962009648640942,-9.803905247229292,,,,,,,,,,
acc,1778672779.0,198.0,-0.07523559263207301,0.1794781966277789,-9.803520481488622,,,,,,,,,,
acc,1778672779.0,198.0,-0.07522632126998458,0.1793376003491386,-9.803495497316975,,,,,,,,,,
acc,1778672779.0,198.0,-0.0752171350636749,0.17919829542181037,-9.803791354787405,,,,,,,,,,
acc,1778672779.0,198.0,-0.07520803321476074,0.17906026973865077,-9.803763903798606,,,,,,,,,,
acc,1778672779.0,198.0,-0.0751990149327817,0.1789235113126622,-9.803736704845962,,,,,,,,,,
acc,1778672779.0,198.0,-0.07483391410142123,0.1787880082756248,-9.803674141771028,,,,,,,,,,
acc,1778672779.0,198.0,-0.07482830783011726,0.17865374887674815,-9.803968296584076,,,,,,,,,,
acc,1778672779.0,198.0,-0.0748227530035968,0.17852072148134268,-9.80393923921977,,,,,,,,,,
acc,1778672779.0,198.0,-0.0748172491408233,0.17838891456951037,-9.80391044844744,,,,,,,,,,
acc,1778672779.0,198.0,-0.07481179576549972,0.17861439781500726,-9.80420239748237,,,,,,,,,,
acc,1778672779.0,198.0,-0.07480639240601536,0.17883781303234075,-9.804171211293784,,,,,,,,,,
acc,1778672779.0,198.0,-0.07515707069313268,0.17870313831753593,-9.804104709696004,,,,,,,,,,
acc,1778672779.0,198.0,-0.07479249925825679,0.17892572018851183,-9.804038817818814,,,,,,,,,,
acc,1778672779.0,198.0,-0.07514326630609751,0.17914626164312197,-9.803973529974934,,,,,,,,,,
acc,1778672779.0,198.0,-0.07513484339713195,0.17936478170487985,-9.80426482461521,,,,,,,,,,
acc,1778672779.0,198.0,-0.0751264976771477,0.17958129921134078,-9.804233077894315,,,,,,,,,,
acc,1778672779.0,198.0,-0.07511822842713553,0.17979583281614842,-9.804521977727461,,,,,,,,,,
acc,1778672779.0,198.0,-0.07511003493509734,0.18000840099105286,-9.804808230831338,,,,,,,,,,
acc,1778672779.0,198.0,-0.07510191649596945,0.180219022027901,-9.805091861838504,,,,,,,,,,
acc,1778672779.0,198.0,-0.07473797684131789,0.18007181847037027,-9.805016999571665,,,,,,,,,,
acc,1778672779.0,198.0,-0.07473324876447883,0.18028184174112002,-9.805298701671502,,,,,,,,,,
acc,1778672779.0,198.0,-0.07472856397874078,0.1804899420019571,-9.805577824457492,,,,,,,,,,
acc,1778672779.0,198.0,-0.07472392208186923,0.18034029089676468,-9.805534127560986,,,,,,,,,,
acc,1778672779.0,198.0,-0.0747193226755248,0.18019200965275586,-9.80549083065272,,,,,,,,,,
acc,1778672779.0,198.0,-0.07471476536522127,0.18004508555200585,-9.805447930019167,,,,,,,,,,
acc,1778672779.0,198.0,-0.0750660401652256,0.17989950599948012,-9.805761221495969,,,,,,,,,,
acc,1778672779.0,198.0,-0.07505832535158004,0.17975525852171856,-9.805715861804265,,,,,,,,,,
acc,1778672779.0,198.0,-0.07505068112083971,0.1796123307655369,-9.805991112632087,,,,,,,,,,
acc,1778672779.0,198.0,-0.07468735152040377,0.1794707104967453,-9.80590809019734,,,,,,,,,,
acc,1778672779.0,198.0,-0.07468308631084727,0.1793303855988837,-9.805861398528467,,,,,,,,,,
acc,1778672779.0,198.0,-0.07467886010966443,0.17919134407197382,-9.805423836764309,,,,,,,,,,
acc,1778672779.0,198.0,-0.074674672555616,0.17905357403128702,-9.805381558407305,,,,,,,,,,
acc,1778672779.0,198.0,-0.07467052329092884,0.17891706370612853,-9.804948399362612,,,,,,,,,,
acc,1778672779.0,198.0,-0.07466641196125941,0.17878180143863695,-9.804910453252216,,,,,,,,,,
acc,1778672779.0,198.0,-0.07466233821565774,0.17864777568259943,-9.805192963205098,,,,,,,,,,
acc,1778672779.0,198.0,-0.0746583017065319,0.1785149750022818,-9.80515279312927,,,,,,,,,,
acc,1778672779.0,198.0,-0.07465430208961289,0.1787390366685459,-9.805112990193141,,,,,,,,,,
acc,1778672779.0,198.0,-0.07465033902391995,0.1786054143821311,-9.804682353777764,,,,,,,,,,
acc,1778672780.0,199.0,-0.07464641217172635,0.1784730131026229,-9.804255652409838,,,,,,,,,,
acc,1778672780.0,199.0,-0.07464252119852563,0.17869743399352708,-9.80422402069623,,,,,,,,,,
acc,1778672780.0,199.0,-0.07463866577299819,0.17891980459004628,-9.804192677967862,,,,,,,,,,
acc,1778672780.0,199.0,-0.07463484556697833,0.1787845544024236,-9.804161621556906,,,,,,,,,,
acc,1778672780.0,199.0,-0.07463106025542172,0.17833052559125165,-9.804095293729995,,,,,,,,,,
acc,1778672780.0,199.0,-0.07498286763386514,0.17820064770229024,-9.804029571697166,,,,,,,,,,
acc,1778672780.0,199.0,-0.07497591481296836,0.17807195592266992,-9.804000002782109,,,,,,,,,,
acc,1778672780.0,199.0,-0.07496902548297572,0.17794443931461854,-9.803970703880788,,,,,,,,,,
acc,1778672780.0,199.0,-0.07496219905855633,0.17781808704407698,-9.804261657102783,,,,,,,,,,
acc,1778672780.0,199.0,-0.07495543495992535,0.1776928883796393,-9.804229978499759,,,,,,,,,,
acc,1778672780.0,199.0,-0.0749487326127874,0.17756883269150592,-9.804518555466792,,,,,,,,,,
acc,1778672780.0,199.0,-0.0749420914482807,0.17744590945044922,-9.80448454065058,,,,,,,,,,
acc,1778672780.0,199.0,-0.0749355109029219,0.1773241082267918,-9.804450836314432,,,,,,,,,,
acc,1778672780.0,199.0,-0.07492899041855144,0.17720341868939674,-9.804417439599556,,,,,,,,,,
acc,1778672780.0,199.0,-0.07492252944227973,0.17743930739633854,-9.804704279516683,,,,,,,,,,
acc,1778672780.0,199.0,-0.07491612742643385,0.17767304347215687,-9.80466857824233,,,,,,,,,,
acc,1778672780.0,199.0,-0.07490978382850494,0.17790464672372097,-9.804633202739442,,,,,,,,,,
acc,1778672780.0,199.0,-0.07490349811109621,0.1781341367712603,-9.80459815001119,,,,,,,,,,
acc,1778672780.0,199.0,-0.07489726974187151,0.1783615330502411,-9.804563417088964,,,,,,,,,,
acc,1778672780.0,199.0,-0.07489109819350454,0.17858685481322084,-9.804529001032096,,,,,,,,,,
acc,1778672780.0,199.0,-0.07488498294362866,0.1788101211316811,-9.80449489892757,,,,,,,,,,
acc,1778672780.0,199.0,-0.07523433043249698,0.17903135089783923,-9.804425569013693,,,,,,,,,,
acc,1778672780.0,199.0,-0.07522509262292609,0.17925056282643886,-9.804392409528427,,,,,,,,,,
acc,1778672780.0,199.0,-0.07557133005132716,0.17946777545651996,-9.804324015191707,,,,,,,,,,
acc,1778672780.0,199.0,-0.07591440986731252,0.17932761483947057,-9.80393639788315,,,,,,,,,,
acc,1778672780.0,199.0,-0.07660974575481472,0.1791887323749141,-9.803872155181397,,,,,,,,,,
acc,1778672780.0,199.0,-0.07729874113970482,0.17905111632655318,-9.803488665178518,,,,,,,,,,
acc,1778672780.0,199.0,-0.07833681497179647,0.17891475506803042,-9.803073128504229,,,,,,,,,,
acc,1778672780.0,199.0,-0.07901007065795211,0.17877963708184005,-9.803016743097091,,,,,,,,,,
acc,1778672780.0,199.0,-0.08003253473985589,0.1790011064828268,-9.802356777367244,,,,,,,,,,
acc,1778672780.0,199.0,-0.08104567762923195,0.17886520831829222,-9.801951562136281,,,,,,,,,,
acc,1778672780.0,199.0,-0.08236938602300374,0.17908589070881065,-9.801585581335399,,,,,,,,,,
acc,1778672780.0,199.0,-0.08336123320630313,0.1789492264899009,-9.801187396709457,,,,,,,,,,
acc,1778672780.0,199.0,-0.08466382907122644,0.1791691363640634,-9.801148169893516,,,,,,,,,,
acc,1778672780.0,199.0,-0.08595455263491213,0.17938704190492386,-9.801109300604102,,,,,,,,,,
acc,1778672780.0,199.0,-0.08758882833439803,0.17960296148791108,-9.801106314394032,,,,,,,,,,
acc,1778672780.0,199.0,-0.08920821028419389,0.17981691331709568,-9.800712517837958,,,,,,,,,,
acc,1778672780.0,199.0,-0.09116813821195865,0.1796736121998521,-9.800713140727474,,,,,,,,,,
acc,1778672780.0,199.0,-0.09346549456170396,0.17988691411429525,-9.80035846982526,,,,,,,,,,
acc,1778672780.0,199.0,-0.09574191747809238,0.18009827242890838,-9.800326786479442,,,,,,,,,,
acc,1778672780.0,199.0,-0.09799759872854591,0.18030770494866033,-9.800295391816965,,,,,,,,,,
acc,1778672780.0,199.0,-0.10058799901054903,0.18051522931284866,-9.799944537731655,,,,,,,,,,
acc,1778672780.0,199.0,-0.10315479908121748,0.1807208629967101,-9.799596880152544,,,,,,,,,,
acc,1778672780.0,199.0,-0.1056982150453037,0.18092462331301354,-9.799252389809547,,,,,,,,,,
acc,1778672780.0,199.0,-0.10853820073004201,0.18112652741363566,-9.798911037704597,,,,,,,,,,
acc,1778672780.0,199.0,-0.11135231587838687,0.18132659229111972,-9.798572795109001,,,,,,,,,,
acc,1778672780.0,199.0,-0.11449604103865949,0.18152483478021741,-9.79855735475515,,,,,,,,,,
acc,1778672780.0,199.0,-0.11761113128987091,0.18172127155941428,-9.79854205504118,,,,,,,,,,
acc,1778672780.0,199.0,-0.12105309139508805,0.18191591915243868,-9.798207182588866,,,,,,,,,,
acc,1778672780.0,199.0,-0.12446370273894891,0.18210879392975465,-9.797875360095375,,,,,,,,,,
acc,1778672780.0,199.0,-0.12819847600139958,0.18229991211003893,-9.797866262972878,,,,,,,,,,
acc,1778672780.0,199.0,-0.13225446461705537,0.18213406152713643,-9.797502020464103,,,,,,,,,,
acc,1778672780.0,199.0,-0.1366287309637694,0.18196972129902206,-9.79749631858632,,,,,,,,,,
acc,1778672780.0,199.0,-0.14096316364236175,0.18180687761309028,-9.79717097789478,,,,,,,,,,
acc,1778672780.0,199.0,-0.14557782268955669,0.18164551678462762,-9.796813071944735,,,,,,,,,,
acc,1778672780.0,199.0,-0.15050566315588151,0.18148562525558626,-9.79681363507278,,,,,,,,,,
acc,1778672780.0,199.0,-0.1553886339565077,0.18100751076309501,-9.796458987300596,,,,,,,,,,
acc,1778672780.0,199.0,-0.1605823376816266,0.18085342451256836,-9.796143095117626,,,,,,,,,,
acc,1778672780.0,199.0,-0.16608395170276,0.18070074116924978,-9.79618526728848,,,,,,,,,,
acc,1778672780.0,199.0,-0.1715354769927308,0.1802297803531829,-9.796191538911302,,,,,,,,,,
acc,1778672780.0,199.0,-0.1772925605013028,0.18008277112829751,-9.796233269631447,,,,,,,,,,
acc,1778672780.0,199.0,-0.1833168933273646,0.17961743985911588,-9.795883919374152,,,,,,,,,,
acc,1778672780.0,199.0,-0.18964155622961165,0.179156344710673,-9.795928446213154,,,,,,,,,,
acc,1778672780.0,199.0,-0.19590864473541791,0.17869944698354467,-9.795972567717369,,,,,,,,,,
acc,1778672780.0,199.0,-0.20247385861065495,0.1782467083355234,-9.796016287589413,,,,,,,,,,
acc,1778672780.0,199.0,-0.20897931208749487,0.17779809077822203,-9.796059609497732,,,,,,,,,,
acc,1778672780.0,199.0,-0.21542555095775098,0.17735355667371253,-9.796422189709153,,,,,,,,,,
acc,1778672780.0,199.0,-0.22216826990652083,0.176913068731199,-9.796461820260385,,,,,,,,,,
acc,1778672780.0,199.0,-0.2288496182532647,0.17647659000372506,-9.796501090103895,,,,,,,,,,
acc,1778672780.0,199.0,-0.23547015634590843,0.17604408388491477,-9.796540002533147,,,,,,,,,,
acc,1778672780.0,199.0,-0.24203043936836113,0.17593514523867984,-9.796933713585908,,,,,,,,,,
acc,1778672780.0,199.0,-0.2488861668720867,0.17582719804083308,-9.797323841482442,,,,,,,,,,
acc,1778672780.0,199.0,-0.2556795022571715,0.17540060798003698,-9.797674907033139,,,,,,,,,,
acc,1778672780.0,199.0,-0.2627306374126588,0.17497790009490885,-9.798058289297883,,,,,,,,,,
acc,1778672780.0,199.0,-0.2700727364024878,0.17455903895370742,-9.79808304273131,,,,,,,,,,
acc,1778672780.0,199.0,-0.27734802225760613,0.17446360629688273,-9.798462707808412,,,,,,,,,,
acc,1778672780.0,199.0,-0.28491223856695014,0.17404942791350794,-9.798448273462387,,,,,,,,,,
acc,1778672780.0,199.0,-0.2924076239629973,0.173639018364237,-9.798433970462318,,,,,,,,,,
acc,1778672780.0,199.0,-0.3001899345063047,0.1732323432622837,-9.79881043573562,,,,,,,,,,
acc,1778672780.0,199.0,-0.3082565491531457,0.17282936853709394,-9.799147965721296,,,,,,,,,,
acc,1778672780.0,199.0,-0.3162497666253199,0.17274966423755303,-9.799517934075261,,,,,,,,,,
acc,1778672780.0,199.0,-0.3241702564535168,0.17267068514109093,-9.79988453620945,,,,,,,,,,
acc,1778672780.0,199.0,-0.3320186820150855,0.1725924246328461,-9.800247802828475,,,,,,,,,,
acc,1778672780.0,199.0,-0.34011529712693833,0.17251487615873873,-9.800607764354808,,,,,,,,,,
acc,1778672780.0,199.0,-0.34813824879062033,0.17211843902627552,-9.800928942485092,,,,,,,,,,
acc,1778672780.0,199.0,-0.3560882087849228,0.17204520052669464,-9.801637806869902,,,,,,,,,,
acc,1778672780.0,199.0,-0.36432094940303306,0.1719726283263276,-9.801985124652266,,,,,,,,,,
acc,1778672780.0,199.0,-0.3724787928863339,0.17190071634958792,-9.802684377855755,,,,,,,,,,
acc,1778672780.0,199.0,-0.3809175148569925,0.17182945857666213,-9.80334176229881,,,,,,,,,,
acc,1778672780.0,199.0,-0.3896345683534409,0.1717588490429875,-9.803282976652797,,,,,,,,,,
acc,1778672780.0,199.0,-0.3982723234938998,0.17168888183873526,-9.803970417901956,,,,,,,,,,
acc,1778672780.0,199.0,-0.4071865889198285,0.17161955110829888,-9.804651605673365,,,,,,,,,,
acc,1778672780.0,199.0,-0.4160197650957556,0.17155085104978715,-9.805326596971723,,,,,,,,,,
acc,1778672780.0,199.0,-0.4247725911634308,0.17148277591452257,-9.80599544827889,,,,,,,,,,
acc,1778672780.0,199.0,-0.4334457994864905,0.17141532000654439,-9.806303136425845,,,,,,,,,,
acc,1778672780.0,199.0,-0.442714772939603,0.1713484776821167,-9.80692759694682,,,,,,,,,,
acc,1778672780.0,199.0,-0.45189943667419413,0.17128224334924128,-9.807546377433107,,,,,,,,,,
acc,1778672780.0,199.0,-0.46100055902079823,0.17121661146717523,-9.807804456771136,,,,,,,,,,
acc,1778672780.0,199.0,-0.47037398122503377,0.17083201094816133,-9.808450764859822,,,,,,,,,,
acc,1778672780.0,199.0,-0.480017216928308,0.17045090853985348,-9.80873612559999,,,,,,,,,,
acc,1778672780.0,199.0,-0.489572744614216,0.1703928344449257,-9.80898338602425,,,,,,,,,,
acc,1778672780.0,199.0,-0.49904136342179367,0.17001572817821875,-9.809263902267062,,,,,,,,,,
acc,1778672780.0,199.0,-0.5090984961248585,0.16964205169183424,-9.809861425897552,,,,,,,,,,
acc,1778672780.0,199.0,-0.5187445945470364,0.169271773738797,-9.810098453790042,,,,,,,,,,
acc,1778672780.0,199.0,-0.5286225289511473,0.16890486335824215,-9.810333325981384,,,,,,,,,,
acc,1778672780.0,199.0,-0.5391207523532674,0.16886084368960513,-9.810921119885855,,,,,,,,,,
acc,1778672780.0,199.0,-0.5491684351281034,0.1688172243553518,-9.811148512092448,,,,,,,,,,
acc,1778672780.0,199.0,-0.5594798045723512,0.16877400170889825,-9.81137383632355,,,,,,,,,,
acc,1778672780.0,199.0,-0.5696974005522972,0.16841162292598968,-9.811632614863234,,,,,,,,,,
acc,1778672780.0,199.0,-0.5801771281775151,0.16837208736629256,-9.811498476669339,,,,,,,,,,
acc,1778672780.0,199.0,-0.5909166123946791,0.16833291134016198,-9.81211116932983,,,,,,,,,,
acc,1778672780.0,199.0,-0.6015584338261278,0.16864914847690238,-9.812363242467795,,,,,,,,,,
acc,1778672780.0,199.0,-0.6131331269361884,0.16896250985263225,-9.81257752052407,,,,,,,,,,
acc,1778672780.0,199.0,-0.6246025648004973,0.16891796783757662,-9.812789850028512,,,,,,,,,,
acc,1778672780.0,199.0,-0.6359677058987764,0.1688738308631322,-9.813000248725105,,,,,,,,,,
acc,1778672780.0,199.0,-0.6472294999465668,0.16918514608433494,-9.813208734195587,,,,,,,,,,
acc,1778672780.0,199.0,-0.6590989776794123,0.1694936304464386,-9.813095776677702,,,,,,,,,,
acc,1778672780.0,199.0,-0.6712155728724195,0.1697993097250494,-9.81330339219975,,,,,,,,,,
acc,1778672780.0,199.0,-0.6835415273528354,0.17010220946016336,-9.813509119872622,,,,,,,,,,
acc,1778672780.0,199.0,-0.6964654844951224,0.17075740016814675,-9.81303839734809,,,,,,,,,,
acc,1778672780.0,199.0,-0.7092719267377556,0.17105158949643295,-9.813282033647335,,,,,,,,,,
acc,1778672780.0,199.0,-0.722316957385278,0.17169814639508718,-9.813168412092807,,,,,,,,,,
acc,1778672780.0,199.0,-0.7352433748830065,0.17198378316857188,-9.81337536350147,,,,,,,,,,
acc,1778672780.0,199.0,-0.7476972281234995,0.1712372223204634,-9.813580433205699,,,,,,,,,,
acc,1778672780.0,199.0,-0.7603928756192788,0.1718820850672745,-9.813783638334755,,,,,,,,,,
acc,1778672780.0,199.0,-0.7729730904552216,0.17216604703250873,-9.81398499586143,,,,,,,,,,
acc,1778672780.0,199.0,-0.7857939596444711,0.1720923908671958,-9.813864987216606,,,,,,,,,,
acc,1778672780.0,199.0,-0.7984982599945167,0.1720194043923355,-9.814775656058949,,,,,,,,,,
acc,1778672781.0,200.0,-0.8110870525072706,0.17162755732592883,-9.814293437238073,,,,,,,,,,
acc,1778672781.0,200.0,-0.8235613884965641,0.17155879606814262,-9.814845182394649,,,,,,,,,,
acc,1778672781.0,200.0,-0.8362418318281336,0.17117113782680116,-9.814681856893255,,,,,,,,,,
acc,1778672781.0,200.0,-0.8495170396075461,0.17078700408350234,-9.8152300683813,,,,,,,,,,
acc,1778672781.0,200.0,-0.8626715534150152,0.1704063627621683,-9.815098746016876,,,,,,,,,,
acc,1778672781.0,200.0,-0.8757064716433804,0.170029182079511,-9.815288145904498,,,,,,,,,,
acc,1778672781.0,200.0,-0.8886228826601849,0.16997494883777142,-9.815120796462212,,,,,,,,,,
acc,1778672781.0,200.0,-0.901421864899967,0.16992120865430035,-9.814954968467356,,,,,,,,,,
acc,1778672781.0,200.0,-0.9141044869556819,0.16954844057143564,-9.815145673444698,,,,,,,,,,
acc,1778672781.0,200.0,-0.927026832052846,0.16949857701303114,-9.815015119996804,,,,,,,,,,
acc,1778672781.0,200.0,-0.9394766739717891,0.16944916677474625,-9.815240776853015,,,,,,,,,,
acc,1778672781.0,200.0,-0.9514583102068018,0.16872567849988065,-9.815464382231811,,,,,,,,,,
acc,1778672781.0,200.0,-0.9633310206112191,0.16868329296166001,-9.815650455373099,,,,,,,,,,
acc,1778672781.0,200.0,-0.9750957962803493,0.1686412927500996,-9.816189848450106,,,,,,,,,,
acc,1778672781.0,200.0,-0.9867536192689291,0.16859967435926712,-9.816724337945688,,,,,,,,,,
acc,1778672781.0,200.0,-0.9983054626742054,0.168913453145013,-9.816898958733102,,,,,,,,,,
acc,1778672781.0,200.0,-1.0097522907182357,0.1692243794342888,-9.816752473187716,,,,,,,,,,
acc,1778672781.0,200.0,-1.0210950588294176,0.1695324791790705,-9.816926837426946,,,,,,,,,,
acc,1778672781.0,200.0,-1.0323347137232532,0.1701927943675939,-9.817454623765263,,,,,,,,,,
acc,1778672781.0,200.0,-1.043472193482356,0.1704920914478098,-9.817622605849468,,,,,,,,,,
acc,1778672781.0,200.0,-1.054508427635709,0.17078866775861998,-9.817789060887318,,,,,,,,,,
acc,1778672781.0,200.0,-1.0654443372371802,0.1710825480514708,-9.818309007534797,,,,,,,,,,
acc,1778672781.0,200.0,-1.0759258309570197,0.1710187437776454,-9.818824227654389,,,,,,,,,,
acc,1778672781.0,200.0,-1.0863120442283218,0.17095551950701335,-9.818979761020127,,,,,,,,,,
acc,1778672781.0,200.0,-1.0966038437873815,0.17124788152425718,-9.819488883014753,,,,,,,,,,
acc,1778672781.0,200.0,-1.1068020884697605,0.1715375859020559,-9.819638375234545,,,,,,,,,,
acc,1778672781.0,200.0,-1.116907629282746,0.17146964671385215,-9.820141509556521,,,,,,,,,,
acc,1778672781.0,200.0,-1.1266018073865725,0.17140232510129041,-9.819965558843196,,,,,,,,,,
acc,1778672781.0,200.0,-1.136527366196727,0.17101611398373232,-9.820146216228421,,,,,,,,,,
acc,1778672781.0,200.0,-1.1456881926529283,0.17095291437886456,-9.82064473228208,,,,,,,,,,
acc,1778672781.0,200.0,-1.1551207548568552,0.17124529659380475,-9.820464209262528,,,,,,,,,,
acc,1778672781.0,200.0,-1.1647870755332106,0.17153502107966156,-9.82095983350755,,,,,,,,,,
acc,1778672781.0,200.0,-1.1743655306748735,0.17253211498074789,-9.821095955654279,,,,,,,,,,
acc,1778672781.0,200.0,-1.18353742094751,0.17352014548362946,-9.821585836781315,,,,,,,,,,
acc,1778672781.0,200.0,-1.1926259408867026,0.17414419934020717,-9.821716269323149,,,,,,,,,,
acc,1778672781.0,200.0,-1.2016318487413615,0.174762580723126,-9.821845516269942,,,,,,,,,,
acc,1778672781.0,200.0,-1.21123038715304,0.17537534122244175,-9.821973588404452,,,,,,,,,,
acc,1778672781.0,200.0,-1.2203866845708855,0.17633752583147472,-9.822100496411208,,,,,,,,,,
acc,1778672781.0,200.0,-1.229459755085341,0.17796546274719646,-9.821871248496983,,,,,,,,,,
acc,1778672781.0,200.0,-1.2388053483172743,0.179578602471058,-9.822034583604808,,,,,,,,,,
acc,1778672781.0,200.0,-1.247711002682589,0.18117707957267876,-9.822196434079313,,,,,,,,,,
acc,1778672781.0,200.0,-1.2562162152754992,0.1831160190084486,-9.821611314677542,,,,,,,,,,
acc,1778672781.0,200.0,-1.2649636142992322,0.1840078496154815,-9.82142201111525,,,,,,,,,,
acc,1778672781.0,200.0,-1.27363150499882,0.18489157404640488,-9.821908921138835,,,,,,,,,,
acc,1778672781.0,200.0,-1.2822206104043055,0.18612225603889906,-9.821681416346038,,,,,,,,,,
acc,1778672781.0,200.0,-1.2907316469612204,0.18698676249798554,-9.821100980810936,,,,,,,,,,
acc,1778672781.0,200.0,-1.298845832665053,0.1878434112429266,-9.820916316178995,,,,,,,,,,
acc,1778672781.0,200.0,-1.3075607468261143,0.1883372852108188,-9.821052830572842,,,,,,,,,,
acc,1778672781.0,200.0,-1.316551446745547,0.18918165830530262,-9.821223601149445,,,,,,,,,,
acc,1778672781.0,200.0,-1.324750444767032,0.18930837257518848,-9.82135732263085,,,,,,,,,,
acc,1778672781.0,200.0,-1.3328749212759259,0.18978893130510865,-9.82184481579526,,,,,,,,,,
acc,1778672781.0,200.0,-1.3406060641070006,0.190265122205756,-9.821653392595106,,,,,,,,,,
acc,1778672781.0,200.0,-1.3482669383520336,0.19002699445149238,-9.822138193899285,,,,,,,,,,
acc,1778672781.0,200.0,-1.3561776719313716,0.1897910310392855,-9.821944105032559,,,,,,,,,,
acc,1778672781.0,200.0,-1.364016505155676,0.18955721228951003,-9.822071277914459,,,,,,,,,,
acc,1778672781.0,200.0,-1.37178409178321,0.18932551870169503,-9.821877797631982,,,,,,,,,,
acc,1778672781.0,200.0,-1.3798360640848677,0.18945092450456055,-9.822005572794563,,,,,,,,,,
acc,1778672781.0,200.0,-1.3874598690475348,0.19028516770564285,-9.822132186625998,,,,,,,,,,
acc,1778672781.0,200.0,-1.395014382517769,0.1914668122596737,-9.822648129883257,,,,,,,,,,
acc,1778672781.0,200.0,-1.4025002345061388,0.19157275822828856,-9.823123887326169,,,,,,,,,,
acc,1778672781.0,200.0,-1.4099180492887848,0.19132274932452598,-9.82253035394488,,,,,,,,,,
acc,1778672781.0,200.0,-1.417268445459784,0.1907555266340304,-9.823042677094993,,,,,,,,,,
acc,1778672781.0,200.0,-1.4245520359830308,0.19019345926827877,-9.822804874186335,,,,,,,,,,
acc,1778672781.0,200.0,-1.4321244099852948,0.19031097657029103,-9.822214241764193,,,,,,,,,,
acc,1778672781.0,200.0,-1.4399829517427918,0.19113739764621793,-9.821983967865792,,,,,,,,,,
acc,1778672781.0,200.0,-1.4484800412618115,0.19298576356640867,-9.822465757980558,,,,,,,,,,
acc,1778672781.0,200.0,-1.4561899336662485,0.19481733042277105,-9.822978665546508,,,,,,,,,,
acc,1778672781.0,200.0,-1.4631197843664712,0.19627727060855102,-9.823131931177548,,,,,,,,,,
acc,1778672781.0,200.0,-1.4699866527697145,0.19740444914977556,-9.823638783845682,,,,,,,,,,
acc,1778672781.0,200.0,-1.4775010798963506,0.1981664036311358,-9.824141029970779,,,,,,,,,,
acc,1778672781.0,200.0,-1.4856571799338683,0.19821146530990133,-9.824603215315042,,,,,,,,,,
acc,1778672781.0,200.0,-1.492674198200372,0.19896608459038995,-9.82470622107129,,,,,,,,,,
acc,1778672781.0,200.0,-1.4996274426411866,0.1997138455506309,-9.825163269380655,,,,,,,,,,
acc,1778672781.0,200.0,-1.5061625146174364,0.20112928042272968,-9.82426722407411,,,,,,,,,,
acc,1778672781.0,200.0,-1.5140581238294553,0.20253185125119494,-9.824408778895998,,,,,,,,,,
acc,1778672781.0,200.0,-1.522201456586825,0.2039216749817757,-9.824549047213752,,,,,,,,,,
acc,1778672781.0,200.0,-1.528886347486789,0.20462439929813106,-9.824652544788009,,,,,,,,,,
acc,1778672781.0,200.0,-1.5351555066124554,0.20567571425728912,-9.82479059764777,,,,,,,,,,
acc,1778672781.0,200.0,-1.5406932225225514,0.2067174745353448,-9.824536913915964,,,,,,,,,,
acc,1778672781.0,200.0,-1.547210053332486,0.208069256910341,-9.823966054903927,,,,,,,,,,
acc,1778672781.0,200.0,-1.5543776284107187,0.2094087539188738,-9.824110345928538,,,,,,,,,,
acc,1778672781.0,200.0,-1.56077009228906,0.2104165878024565,-9.82354336421528,,,,,,,,,,
acc,1778672781.0,200.0,-1.567459444950403,0.21173475146283097,-9.823656000456397,,,,,,,,,,
acc,1778672781.0,200.0,-1.5733780430032862,0.21272144639767548,-9.82277365945269,,,,,,,,,,
acc,1778672781.0,200.0,-1.5792428516977515,0.21401866280815676,-9.822928785935293,,,,,,,,,,
acc,1778672781.0,200.0,-1.585764319353606,0.21530408989094374,-9.822337038458073,,,,,,,,,,
acc,1778672781.0,200.0,-1.592581502884583,0.21657783481357684,-9.822851107403622,,,,,,,,,,
acc,1778672781.0,200.0,-1.5989817471780925,0.2178400037687697,-9.822650546018993,,,,,,,,,,
acc,1778672781.0,200.0,-1.6056788088062857,0.21909070198329406,-9.822806790871345,,,,,,,,,,
acc,1778672781.0,200.0,-1.6123150068655265,0.2206850079218581,-9.822606632472251,,,,,,,,,,
acc,1778672781.0,200.0,-1.619245868575977,0.2226198077334296,-9.82272778060756,,,,,,,,,,
acc,1778672781.0,200.0,-1.6264332203502938,0.223507580090271,-9.822883323298104,,,,,,,,,,
acc,1778672781.0,200.0,-1.633555253118364,0.22470677141291984,-9.822646974252777,,,,,,,,,,
acc,1778672781.0,200.0,-1.6409675430276482,0.22589506444565186,-9.822767755562976,,,,,,,,,,
acc,1778672781.0,200.0,-1.6476380101076327,0.22675307154659946,-9.822922934704287,,,,,,,,,,
acc,1778672781.0,200.0,-1.6535379010790703,0.22689333526608055,-9.822366748677613,,,,,,,,,,
acc,1778672781.0,200.0,-1.6597391557222638,0.22774226968059516,-9.822525571758215,,,,,,,,,,
acc,1778672781.0,200.0,-1.6662390260585616,0.22961292926762983,-9.823357401040328,,,,,,,,,,
acc,1778672781.0,200.0,-1.6726798258684061,0.23043714868574694,-9.82421717519691,,,,,,,,,,
acc,1778672781.0,200.0,-1.679062092077246,0.23089890552523792,-9.82432368705124,,,,,,,,,,
acc,1778672781.0,200.0,-1.6853863567275396,0.23238589546925328,-9.824429230933795,,,,,,,,,,
acc,1778672781.0,200.0,-1.691653147023231,0.23456932437050423,-9.824924282751658,,,,,,,,,,
acc,1778672781.0,200.0,-1.6985374422627861,0.23602295826611908,-9.82541483558956,,,,,,,,,,
acc,1778672781.0,200.0,-1.7046847172782669,0.23746338170649814,-9.826575386892694,,,,,,,,,,
acc,1778672781.0,200.0,-1.7104211554392972,0.2396006662920996,-9.827405915341817,,,,,,,,,,
acc,1778672781.0,200.0,-1.7167799084824207,0.2410085763577413,-9.828193391692764,,,,,,,,,,
acc,1778672781.0,200.0,-1.7230808741725157,0.24204872067633917,-9.829364186820357,,,,,,,,,,
acc,1778672781.0,200.0,-1.7290051022907578,0.2424049570744438,-9.82977889618679,,,,,,,,,,
acc,1778672781.0,200.0,-1.7348754921004612,0.24275795606090067,-9.829834866195826,,,,,,,,,,
acc,1778672781.0,200.0,-1.7403375625514876,0.24413717211192185,-9.830955247833185,,,,,,,,,,
acc,1778672781.0,200.0,-1.7457499948321544,0.2448293997724687,-9.830645548541666,,,,,,,,,,
acc,1778672781.0,200.0,-1.751468210194209,0.24480539644687122,-9.831048612989218,,,,,,,,,,
acc,1778672781.0,200.0,-1.7564245107696483,0.2451365811936294,-9.831483509655731,,,,,,,,,,
acc,1778672781.0,200.0,-1.7616907485557556,0.245819726001234,-9.830849535634925,,,,,,,,,,
acc,1778672781.0,200.0,-1.7669091281017522,0.24649666256121275,-9.83164121975663,,,,,,,,,,
acc,1778672781.0,200.0,-1.772754528257443,0.247486930755368,-9.831715761173008,,,,,,,,,,
acc,1778672781.0,200.0,-1.7782273327772065,0.2484681996637178,-9.832499572986372,,,,,,,,,,
acc,1778672781.0,200.0,-1.7836504020084272,0.24912106787376972,-9.83256631420685,,,,,,,,,,
acc,1778672781.0,200.0,-1.7886692188991473,0.24976800301031915,-9.832632448902826,,,,,,,,,,
acc,1778672781.0,200.0,-1.7936424263154913,0.25072854196356736,-9.83305295154329,,,,,,,,,,
acc,1778672781.0,200.0,-1.7989254076189634,0.2516803518419811,-9.832724190983091,,,,,,,,,,
acc,1778672781.0,200.0,-1.8044798525544754,0.25262351198205074,-9.832398418091845,,,,,,,,,,
acc,1778672781.0,200.0,-1.8099838205564227,0.2539130695724919,-9.832785551949838,,,,,,,,,,
acc,1778672781.0,200.0,-1.8147633285212827,0.2551909081081442,-9.832814199218276,,,,,,,,,,
acc,1778672781.0,200.0,-1.8194994020103104,0.2571670798464518,-9.831848653017728,,,,,,,,,,
acc,1778672781.0,200.0,-1.8248668772027454,0.25912529285398517,-9.831530836852464,,,,,,,,,,
acc,1778672781.0,200.0,-1.8305405519611346,0.2624501059119869,-9.830896435779538,,,,,,,,,,
acc,1778672781.0,200.0,-1.8368726115740357,0.265744704336374,-9.830622767881996,,,,,,,,,,
acc,1778672782.0,201.0,-1.8427921509428629,0.2679799450129927,-9.830316092002262,,,,,,,,,,
acc,1778672782.0,201.0,-1.84830292813889,0.2705498404707184,-9.828698807827493,,,,,,,,,,
acc,1778672782.0,201.0,-1.854118593283285,0.27448077558899464,-9.828445110663436,,,,,,,,,,
acc,1778672782.0,201.0,-1.8595264405337368,0.27873096463104563,-9.827838751450752,,,,,,,,,,
acc,1778672782.0,201.0,-1.8648851435568814,0.282942529753687,-9.826563453535607,,,,,,,,,,
acc,1778672782.0,201.0,-1.8705501163334946,0.28640586914112093,-9.826329161158005,,,,,,,,,,
acc,1778672782.0,201.0,-1.8754536647654987,0.2898377352203543,-9.825706526697687,,,,,,,,,,
acc,1778672782.0,201.0,-1.8803126519392093,0.29359339025736003,-9.824095638843328,,,,,,,,,,
acc,1778672782.0,201.0,-1.8851274828439841,0.296250005400279,-9.822889851932565,,,,,,,,,,
acc,1778672782.0,201.0,-1.8902535348192606,0.29923744539527536,-9.821659527779792,,,,,,,,,,
acc,1778672782.0,201.0,-1.8953330036369842,0.30393709449751893,-9.82083085504206,,,,,,,,,,
acc,1778672782.0,201.0,-1.90036631265922,0.3089490112714487,-9.819654737041493,,,,,,,,,,
acc,1778672782.0,201.0,-1.9060638238244285,0.3132054397407415,-9.818844282789561,,,,,,,,,,
acc,1778672782.0,201.0,-1.9117095587983413,0.3163937647976843,-9.818999617855429,,,,,,,,,,
acc,1778672782.0,201.0,-1.9169490125550805,0.31852370220397175,-9.817449680335864,,,,,,,,,,
acc,1778672782.0,201.0,-1.9217858863839734,0.3206342838106329,-9.816943241356508,,,,,,,,,,
acc,1778672782.0,201.0,-1.927288746903727,0.3227256855271533,-9.816405900734315,,,,,,,,,,
acc,1778672782.0,201.0,-1.9334160379431387,0.32511756218624716,-9.815873443186451,,,,,,,,,,
acc,1778672782.0,201.0,-1.9388132098381645,0.3278426688802898,-9.816410740992028,,,,,,,,,,
acc,1778672782.0,201.0,-1.943096418667568,0.32986856478491705,-9.816268709659385,,,,,,,,,,
acc,1778672782.0,201.0,-1.9480506450786215,0.3321955307381829,-9.816802415343155,,,,,,,,,,
acc,1778672782.0,201.0,-1.9536697910984666,0.3341818702431666,-9.817011799846233,,,,,,,,,,
acc,1778672782.0,201.0,-1.959237873388302,0.33579519312767414,-9.817893718513435,,,,,,,,,,
acc,1778672782.0,201.0,-1.9640454153757205,0.33806830090735823,-9.818412657012363,,,,,,,,,,
acc,1778672782.0,201.0,-1.9688092691017924,0.34103068336220715,-9.818252433942014,,,,,,,,,,
acc,1778672782.0,201.0,-1.9731748659727923,0.34325621408407647,-9.819158581966859,,,,,,,,,,
acc,1778672782.0,201.0,-1.9782107309976213,0.34546152044781386,-9.81966602604258,,,,,,,,,,
acc,1778672782.0,201.0,-1.9835557984665464,0.34800175174872405,-9.819849387993742,,,,,,,,,,
acc,1778672782.0,201.0,-1.9881423531121998,0.34948948825020865,-9.820031083657653,,,,,,,,,,
acc,1778672782.0,201.0,-1.9930422022780825,0.3513186704339784,-9.82053059882131,,,,,,,,,,
acc,1778672782.0,201.0,-1.9975425501164685,0.3545156147405955,-9.82102557468544,,,,,,,,,,
acc,1778672782.0,201.0,-2.002356975788387,0.35768350711656666,-9.82084160765382,,,,,,,,,,
acc,1778672782.0,201.0,-2.0071276508432723,0.35908326225255216,-9.820623817704714,,,,,,,,,,
acc,1778672782.0,201.0,-2.012209937993113,0.3622096462890505,-9.821863380206588,,,,,,,,,,
acc,1778672782.0,201.0,-2.0168910753597387,0.3656625937861266,-9.822346244444846,,,,,,,,,,
acc,1778672782.0,201.0,-2.020819734351665,0.3683742148579858,-9.822114781641218,,,,,,,,,,
acc,1778672782.0,201.0,-2.025422631067775,0.3696768202523338,-9.822985829874899,,,,,,,,,,
acc,1778672782.0,201.0,-2.0299836995210723,0.3716420325458815,-9.823458493931794,,,,,,,,,,
acc,1778672782.0,201.0,-2.0348582846594017,0.3735893862208184,-9.822897453834655,,,,,,,,,,
acc,1778672782.0,201.0,-2.0389786340269533,0.3741346610032022,-9.823725885599158,,,,,,,,,,
acc,1778672782.0,201.0,-2.0420321317122667,0.37538491918081995,-9.823481885885663,,,,,,,,,,
acc,1778672782.0,201.0,-2.0457323249132005,0.37626884206715494,-9.823595077229356,,,,,,,,,,
acc,1778672782.0,201.0,-2.0501088314328793,0.3778546707263516,-9.823707239962886,,,,,,,,,,
acc,1778672782.0,201.0,-2.054090593451926,0.37907112384739305,-9.824208842624992,,,,,,,,,,
acc,1778672782.0,201.0,-2.058391145398834,0.3806314871368573,-9.824670392415682,,,,,,,,,,
acc,1778672782.0,201.0,-2.0619426787506154,0.38285211423224247,-9.825518216112508,,,,,,,,,,
acc,1778672782.0,201.0,-2.0658169025102864,0.385052561730479,-9.825612902825608,,,,,,,,,,
acc,1778672782.0,201.0,-2.069655919889224,0.3875879773759004,-9.826771631247706,,,,,,,,,,
acc,1778672782.0,201.0,-2.073460050833618,0.3893904242304604,-9.826535449114118,,,,,,,,,,
acc,1778672782.0,201.0,-2.077584585733571,0.3887626946707446,-9.826265918636683,,,,,,,,,,
acc,1778672782.0,201.0,-2.0820266038544832,0.3891700857236827,-9.827099242908638,,,,,,,,,,
acc,1778672782.0,201.0,-2.0857183184801578,0.392023056571095,-9.826860083792601,,,,,,,,,,
acc,1778672782.0,201.0,-2.088347078424668,0.39552454431323275,-9.825238726973096,,,,,,,,,,
acc,1778672782.0,201.0,-2.090951949993705,0.3989942129255663,-9.824377535794437,,,,,,,,,,
acc,1778672782.0,201.0,-2.0935331502769734,0.40243235156988844,-9.823524170530396,,,,,,,,,,
acc,1778672782.0,201.0,-2.097120300913683,0.40654918387944783,-9.823672472001105,,,,,,,,,,
acc,1778672782.0,201.0,-2.099964916990232,0.40888925275591137,-9.82346445275774,,,,,,,,,,
acc,1778672782.0,201.0,-2.1024642138231697,0.4112080567137922,-9.823258323848595,,,,,,,,,,
acc,1778672782.0,201.0,-2.1045858349049507,0.4156001050142718,-9.823728510385282,,,,,,,,,,
acc,1778672782.0,201.0,-2.1063332032463515,0.4168285196061368,-9.822845539761285,,,,,,,,,,
acc,1778672782.0,201.0,-2.1084196656335683,0.4180457712313981,-9.823319477244963,,,,,,,,,,
acc,1778672782.0,201.0,-2.111161600715155,0.42028136718545084,-9.823114665843734,,,,,,,,,,
acc,1778672782.0,201.0,-2.114233591862978,0.42352606246366475,-9.822237273615674,,,,,,,,,,
acc,1778672782.0,201.0,-2.1169226941548462,0.4274512087565649,-9.823107205725396,,,,,,,,,,
acc,1778672782.0,201.0,-2.1185579542675788,0.429956307831728,-9.822549359668667,,,,,,,,,,
acc,1778672782.0,201.0,-2.12088829066507,0.43137374237747056,-9.8219610792832,,,,,,,,,,
acc,1778672782.0,201.0,-2.123197450644895,0.4341981688737521,-9.822088090140138,,,,,,,,,,
acc,1778672782.0,201.0,-2.1258050956766303,0.4380263342734939,-9.821539505132554,,,,,,,,,,
acc,1778672782.0,201.0,-2.1277146117900436,0.4418197120845403,-9.822415777579511,,,,,,,,,,
acc,1778672782.0,201.0,-2.128222397959759,0.4441942407887268,-9.821225267889204,,,,,,,,,,
acc,1778672782.0,201.0,-2.129045038681406,0.4465471915110882,-9.82171392862287,,,,,,,,,,
acc,1778672782.0,201.0,-2.130925112343346,0.4499081652244745,-9.821488212797657,,,,,,,,,,
acc,1778672782.0,201.0,-2.13243312878086,0.4535935693780382,-9.820909575614268,,,,,,,,,,
acc,1778672782.0,201.0,-2.1339274414774554,0.4568905108293952,-9.820726663647372,,,,,,,,,,
acc,1778672782.0,201.0,-2.1343787703413635,0.46086742790706675,-9.821929790912616,,,,,,,,,,
acc,1778672782.0,201.0,-2.1348259978635182,0.463423837848887,-9.820743698071091,,,,,,,,,,
acc,1778672782.0,201.0,-2.135943593393037,0.4669864215005072,-9.823011569322292,,,,,,,,,,
acc,1778672782.0,201.0,-2.137406005403424,0.4712265666736718,-9.823164528581806,,,,,,,,,,
acc,1778672782.0,201.0,-2.1392101004359287,0.47574764931550306,-9.824345502164347,,,,,,,,,,
acc,1778672782.0,201.0,-2.140642828905776,0.4795532067406674,-9.825906210750615,,,,,,,,,,
acc,1778672782.0,201.0,-2.1424175100927725,0.4836791543993395,-9.826707297740269,,,,,,,,,,
acc,1778672782.0,201.0,-2.144531027478749,0.486702700897782,-9.829311442628093,,,,,,,,,,
acc,1778672782.0,201.0,-2.1466253388177643,0.49005374391762024,-9.82940715379516,,,,,,,,,,
acc,1778672782.0,201.0,-2.1493750594623475,0.49337433520023205,-9.830886371342558,,,,,,,,,,
acc,1778672782.0,201.0,-2.1514253519640496,0.49701971456249094,-9.833097576640904,,,,,,,,,,
acc,1778672782.0,201.0,-2.1534570129702564,0.5023713155909453,-9.832803910390316,,,,,,,,,,
acc,1778672782.0,201.0,-2.155115248752276,0.5062899095055486,-9.83531715894584,,,,,,,,,,
acc,1778672782.0,201.0,-2.1564034436519544,0.5101728942395206,-9.836068230241873,,,,,,,,,,
acc,1778672782.0,201.0,-2.1576799324251343,0.5133106583099485,-9.837486916974964,,,,,,,,,,
acc,1778672782.0,201.0,-2.1589448214502966,0.5171298438286902,-9.83999310426235,,,,,,,,,,
acc,1778672782.0,201.0,-2.1601982161391566,0.5205593514947316,-9.841411619308884,,,,,,,,,,
acc,1778672782.0,201.0,-2.1617951929632144,0.5239576944447292,-9.84384664738994,,,,,,,,,,
acc,1778672782.0,201.0,-2.163377657698305,0.5269701929753988,-9.845904575824214,,,,,,,,,,
acc,1778672782.0,201.0,-2.1645907702453084,0.5309847195395547,-9.847624334983816,,,,,,,,,,
acc,1778672782.0,201.0,-2.1665027937935344,0.5346432968076343,-9.84822806505853,,,,,,,,,,
acc,1778672782.0,201.0,-2.1676875075756885,0.537558692989849,-9.85028168202995,,,,,,,,,,
acc,1778672782.0,201.0,-2.168861455603566,0.5411575310732399,-9.851251730669771,,,,,,,,,,
acc,1778672782.0,201.0,-2.1693148010014527,0.5443686938323732,-9.852887404510643,,,,,,,,,,
acc,1778672782.0,201.0,-2.1694445584214703,0.5479056479387683,-9.853088345287565,,,,,,,,,,
acc,1778672782.0,201.0,-2.170602539655182,0.5520848920687781,-9.853677926392812,,,,,,,,,,
acc,1778672782.0,201.0,-2.1717499980658306,0.5569361021986343,-9.85461711260375,,,,,,,,,,
acc,1778672782.0,201.0,-2.1725320574534854,0.5620981910889569,-9.854127895105778,,,,,,,,,,
acc,1778672782.0,201.0,-2.172952047382353,0.5675328392533715,-9.853252656968692,,,,,,,,,,
acc,1778672782.0,201.0,-2.173368220774641,0.5739830079130538,-9.852775838547092,,,,,,,,,,
acc,1778672782.0,201.0,-2.1737806123125605,0.580374562545561,-9.852622830395976,,,,,,,,,,
acc,1778672782.0,201.0,-2.174544219032734,0.5856431296138453,-9.85076737003838,,,,,,,,,,
acc,1778672782.0,201.0,-2.1749459240480182,0.5898344175288845,-9.849283733284508,,,,,,,,,,
acc,1778672782.0,201.0,-2.1756989413250696,0.5939876183527507,-9.847139138725723,,,,,,,,,,
acc,1778672782.0,201.0,-2.1757706849819938,0.5988130125264923,-9.846327408774291,,,,,,,,,,
acc,1778672782.0,201.0,-2.175486804996153,0.6039140255305502,-9.843854716387202,,,,,,,,,,
acc,1778672782.0,201.0,-2.1758799445131087,0.6082942538624386,-9.84101402773285,,,,,,,,,,
acc,1778672782.0,201.0,-2.1762695114926585,0.6136640805603397,-9.839973984041727,,,,,,,,,,
acc,1778672782.0,201.0,-2.1773654726109255,0.620369475472004,-9.837523523011784,,,,,,,,,,
acc,1778672782.0,201.0,-2.1788064461487724,0.6259845348409621,-9.835450301440735,,,,,,,,,,
acc,1778672782.0,201.0,-2.1791694195009863,0.6315485690612356,-9.834496319853477,,,,,,,,,,
acc,1778672782.0,201.0,-2.1792096263578826,0.6363521076870645,-9.8317406729872,,,,,,,,,,
acc,1778672782.0,201.0,-2.179923898427107,0.6421769013168721,-9.828655104713532,,,,,,,,,,
acc,1778672782.0,201.0,-2.1813416229286875,0.6475937923393859,-9.826343004101457,,,,,,,,,,
acc,1778672782.0,201.0,-2.1820365211599917,0.6539908611277562,-9.82405191399272,,,,,,,,,,
acc,1778672782.0,201.0,-2.18272510471799,0.6606847700815799,-9.820361775414385,,,,,,,,,,
acc,1778672782.0,201.0,-2.1827330005042365,0.6666434106404026,-9.817415103825388,,,,,,,,,,
acc,1778672782.0,201.0,-2.183415254998312,0.6728673719185879,-9.814104743243183,,,,,,,,,,
acc,1778672782.0,201.0,-2.184091309717099,0.6793897464041756,-9.81156989290578,,,,,,,,,,
acc,1778672782.0,201.0,-2.184761220999748,0.6854978793426937,-9.808312648880474,,,,,,,,,,
acc,1778672783.0,202.0,-2.1847506142828497,0.690166142244551,-9.805830432364376,,,,,,,,,,
acc,1778672783.0,202.0,-2.1847401039511603,0.6944370122908561,-9.803335277789154,,,,,,,,,,
acc,1778672783.0,202.0,-2.1847296891287997,0.6997339774776214,-9.801572731000855,,,,,,,,,,
acc,1778672783.0,202.0,-2.184364397487543,0.7025335296252502,-9.79950673284661,,,,,,,,,,
acc,1778672783.0,202.0,-2.1829375291443482,0.7070469863833679,-9.797424005290454,,,,,,,,,,
acc,1778672783.0,202.0,-2.181523627014236,0.7111644570972768,-9.794650279156466,,,,,,,,,,
acc,1778672783.0,202.0,-2.1801225732697147,0.7138601384842117,-9.794067054101173,,,,,,,,,,
acc,1778672783.0,202.0,-2.1784147832387992,0.7168862951447379,-9.791359327670524,,,,,,,,,,
acc,1778672783.0,202.0,-2.1760125693875754,0.7226536895733459,-9.789386140566538,,,,,,,,,,
acc,1778672783.0,202.0,-2.173632184884515,0.7276942444460629,-9.78948968738025,,,,,,,,,,
acc,1778672783.0,202.0,-2.1712734313606203,0.7326889948963016,-9.78678806198718,,,,,,,,,,
acc,1778672783.0,202.0,-2.1689361122495754,0.7383127873323017,-9.787589657186308,,,,,,,,,,
acc,1778672783.0,202.0,-2.1673299755102198,0.7432110452163945,-9.787319063126715,,,,,,,,,,
acc,1778672783.0,202.0,-2.165738434018803,0.7484197540399149,-9.787086431500114,,,,,,,,,,
acc,1778672783.0,202.0,-2.1644808229996775,0.7539005982660366,-9.788240277572301,,,,,,,,,,
acc,1778672783.0,202.0,-2.1622052295803407,0.7575923020592333,-9.789383638443248,,,,,,,,,,
acc,1778672783.0,202.0,-2.1603052862088097,0.7623153636099432,-9.78909674223451,,,,,,,,,,
acc,1778672783.0,202.0,-2.1584226079527418,0.7659306009919247,-9.790587291552336,,,,,,,,,,
acc,1778672783.0,202.0,-2.1565570379198076,0.7684835847160739,-9.790005484163244,,,,,,,,,,
acc,1778672783.0,202.0,-2.1550633919518116,0.7717233025665432,-9.792197709067283,,,,,,,,,,
acc,1778672783.0,202.0,-2.1532283477010474,0.776317953167277,-9.794015050633874,,,,,,,,,,
acc,1778672783.0,202.0,-2.151764950103835,0.7815452813987616,-9.795460906414235,,,,,,,,,,
acc,1778672783.0,202.0,-2.150634318445263,0.786405640211907,-9.798703956107076,,,,,,,,,,
acc,1778672783.0,202.0,-2.1481295884972162,0.7918962711833604,-9.800497668723029,,,,,,,,,,
acc,1778672783.0,202.0,-2.1463575529059735,0.7976919791304046,-9.802275081568595,,,,,,,,,,
acc,1778672783.0,202.0,-2.1446016201013065,0.8027250779770562,-9.805420715236897,,,,,,,,,,
acc,1778672783.0,202.0,-2.143216615008144,0.8073929724394362,-9.808821737371641,,,,,,,,,,
acc,1778672783.0,202.0,-2.1414892244410098,0.812018448962001,-9.81293728165439,,,,,,,,,,
acc,1778672783.0,202.0,-2.139422559720189,0.8148625584629094,-9.815311587152896,,,,,,,,,,
acc,1778672783.0,202.0,-2.1366647508330456,0.8169708896867078,-9.81968762480337,,,,,,,,,,
acc,1778672783.0,202.0,-2.1349968981197693,0.8187050909275619,-9.822320056592837,,,,,,,,,,
acc,1778672783.0,202.0,-2.133699172680561,0.8211334756351181,-9.826667901482772,,,,,,,,,,
acc,1778672783.0,202.0,-2.13241323988666,0.823184821996167,-9.829272396771472,,,,,,,,,,
acc,1778672783.0,202.0,-2.1314584603013524,0.8262469284884402,-9.831817730188204,,,,,,,,,,
acc,1778672783.0,202.0,-2.130512356954824,0.8282518080814486,-9.833984962541365,,,,,,,,,,
acc,1778672783.0,202.0,-2.1299298131120135,0.829209067988349,-9.837126416610488,,,,,,,,,,
acc,1778672783.0,202.0,-2.128997600838404,0.8311870301179306,-9.839245408079876,,,,,,,,,,
acc,1778672783.0,202.0,-2.127044449659833,0.8335019893667771,-9.844113888259761,,,,,,,,,,
acc,1778672783.0,202.0,-2.12510904708292,0.8361508742953039,-9.846524354662213,,,,,,,,,,
acc,1778672783.0,202.0,-2.123191231822382,0.8394501272425283,-9.849942317715335,,,,,,,,,,
acc,1778672783.0,202.0,-2.1212908440585942,0.8427193993458215,-9.852938764717578,,,,,,,,,,
acc,1778672783.0,202.0,-2.1190527633511635,0.8463139251204537,-9.855624009230317,,,,,,,,,,
acc,1778672783.0,202.0,-2.1168350204423816,0.8502307580172006,-9.858923787851815,,,,,,,,,,
acc,1778672783.0,202.0,-2.114282468456133,0.8547864277622063,-9.860489741148182,,,,,,,,,,
acc,1778672783.0,202.0,-2.112108073974569,0.857916336481291,-9.86278689196655,,,,,,,,,,
acc,1778672783.0,202.0,-2.109278999758679,0.8613727652732315,-9.863252836300278,,,,,,,,,,
acc,1778672783.0,202.0,-2.106475633789773,0.8665371280564267,-9.8655248784073,,,,,,,,,,
acc,1778672783.0,202.0,-2.102987809280682,0.8709446191979824,-9.867066340936336,,,,,,,,,,
acc,1778672783.0,202.0,-2.0998866503088203,0.8756670298947635,-9.868558301565296,,,,,,,,,,
acc,1778672783.0,202.0,-2.0974881108239516,0.8786071933500285,-9.870391666544991,,,,,,,,,,
acc,1778672783.0,202.0,-2.0947918905154657,0.8815206390771277,-9.870114075493376,,,,,,,,,,
acc,1778672783.0,202.0,-2.092439647909767,0.8857919726599516,-9.870513436616559,,,,,,,,,,
acc,1778672783.0,202.0,-2.088724408637082,0.8886401291880888,-9.869524805905595,,,,,,,,,,
acc,1778672783.0,202.0,-2.0846879592233387,0.893556709034797,-9.869610054166074,,,,,,,,,,
acc,1778672783.0,202.0,-2.0813981227619673,0.898428611153282,-9.869304071368969,,,,,,,,,,
acc,1778672783.0,202.0,-2.0784931526494157,0.903256241538646,-9.868290926899869,,,,,,,,,,
acc,1778672783.0,202.0,-2.0749046473618704,0.9083949644979075,-9.867286989031978,,,,,,,,,,
acc,1778672783.0,202.0,-2.070638818296772,0.9148713628656033,-9.864978800174121,,,,,,,,,,
acc,1778672783.0,202.0,-2.066092276782099,0.9199045374341677,-9.863366024877141,,,,,,,,,,
acc,1778672783.0,202.0,-2.0622614890763145,0.9245370127789533,-9.86070300097656,,,,,,,,,,
acc,1778672783.0,202.0,-2.059885378444218,0.9298373160767928,-9.85565041307567,,,,,,,,,,
acc,1778672783.0,202.0,-2.0568209268449578,0.9357638933724796,-9.854122406219792,,,,,,,,,,
acc,1778672783.0,202.0,-2.053074389345426,0.9395423102031677,-9.849520073590238,,,,,,,,,,
acc,1778672783.0,202.0,-2.0500718302414374,0.9439963341032779,-9.8459179749318,,,,,,,,,,
acc,1778672783.0,202.0,-2.0478064888791887,0.9487648455771903,-9.843768475150586,,,,,,,,,,
acc,1778672783.0,202.0,-2.0465911336280684,0.9527800918384677,-9.8371304312488,,,,,,,,,,
acc,1778672783.0,202.0,-2.045386822495372,0.9574687839586411,-9.832682507304941,,,,,,,,,,
acc,1778672783.0,202.0,-2.0434835312014856,0.9631442698082119,-9.829943347160652,,,,,,,,,,
acc,1778672783.0,202.0,-2.041952497361182,0.9698330856994712,-9.825844706558694,,,,,,,,,,
acc,1778672783.0,202.0,-2.0407903382107286,0.9782004528686333,-9.822848214959217,,,,,,,,,,
acc,1778672783.0,202.0,-2.0406681494228907,0.9875211850648901,-9.820198420504909,,,,,,,,,,
acc,1778672783.0,202.0,-2.0398726323796903,0.995017884828224,-9.818282638113905,,,,,,,,,,
acc,1778672783.0,202.0,-2.038729373289177,1.0010620893778215,-9.816384264726585,,,,,,,,,,
acc,1778672783.0,202.0,-2.038306445221573,1.0059864744213542,-9.814503142144254,,,,,,,,,,
acc,1778672783.0,202.0,-2.0399461614115104,1.0119310057368236,-9.813384540944245,,,,,,,,,,
acc,1778672783.0,202.0,-2.0419259391886633,1.0178215182033574,-9.812631075663017,,,,,,,,,,
acc,1778672783.0,202.0,-2.042503363990407,1.0215642073114959,-9.811529486215052,,,,,,,,,,
acc,1778672783.0,202.0,-2.042720570630621,1.0249179150273446,-9.809692479755293,,,,,,,,,,
acc,1778672783.0,202.0,-2.0429358034816154,1.0282411470996824,-9.80961149987672,,,,,,,,,,
acc,1778672783.0,202.0,-2.043149080479554,1.031179209455633,-9.808856817315792,,,,,,,,,,
acc,1778672783.0,202.0,-2.0437153904052177,1.0340905732008567,-9.80913840222889,,,,,,,,,,
acc,1778672783.0,202.0,-2.04427655418826,1.038395346795718,-9.809772390255759,,,,,,,,,,
acc,1778672783.0,202.0,-2.04554255151009,1.0447553066512898,-9.810010160849867,,,,,,,,,,
acc,1778672783.0,202.0,-2.047116512065045,1.0517319111457408,-9.810245770787276,,,,,,,,,,
acc,1778672783.0,202.0,-2.047646769363113,1.0586451182004597,-9.810124268704989,,,,,,,,,,
acc,1778672783.0,202.0,-2.0492016085712947,1.0658504658263472,-9.80904545904007,,,,,,,,,,
acc,1778672783.0,202.0,-2.0504228511934683,1.0712510040652368,-9.80999975916443,,,,,,,,,,
acc,1778672783.0,202.0,-2.050568092320741,1.0762475049124254,-9.810625919892596,,,,,,,,,,
acc,1778672783.0,202.0,-2.051066984608085,1.0804886689310065,-9.811246390605827,,,,,,,,,,
acc,1778672783.0,202.0,-2.0515613433876845,1.0843718162541314,-9.813600556303067,,,,,,,,,,
acc,1778672783.0,202.0,-2.0524061717522097,1.088894115352731,-9.813484063189291,,,,,,,,,,
acc,1778672783.0,202.0,-2.0535982940180197,1.0933753196544727,-9.814753000042764,,,,,,,,,,
acc,1778672783.0,202.0,-2.0533597175532807,1.0967864022045448,-9.81601040588068,,,,,,,,,,
acc,1778672783.0,202.0,-2.0528038415499874,1.0994565548811233,-9.817291879858795,,,,,,,,,,
acc,1778672783.0,202.0,-2.052927446276699,1.1017474725145993,-9.818206747007778,,,,,,,,,,
acc,1778672783.0,202.0,-2.0526949659039224,1.1036981047300454,-9.818403367767432,,,,,,,,,,
acc,1778672783.0,202.0,-2.0517901596316,1.1080447829674964,-9.817852765493877,,,,,,,,,,
acc,1778672783.0,202.0,-2.0508935754660396,1.1137718280041002,-9.818727032322826,,,,,,,,,,
acc,1778672783.0,202.0,-2.050679577166829,1.1194468305467697,-9.818883430802959,,,,,,,,,,
acc,1778672783.0,202.0,-2.052206856692175,1.1247153016367146,-9.819073902437614,,,,,,,,,,
acc,1778672783.0,202.0,-2.0530458191380667,1.1285160316864076,-9.820647014534902,,,,,,,,,,
acc,1778672783.0,202.0,-2.0535221959365164,1.1312528236110697,-9.819827554266594,,,,,,,,,,
acc,1778672783.0,202.0,-2.0543492057015906,1.1332548039918033,-9.821393817807808,,,,,,,,,,
acc,1778672783.0,202.0,-2.055168700308845,1.1359485340005016,-9.821916439069943,,,,,,,,,,
acc,1778672783.0,202.0,-2.054241414903335,1.1386177856938364,-9.823144244020597,,,,,,,,,,
acc,1778672783.0,202.0,-2.0536775268284266,1.1412627815101657,-9.822905531719861,,,,,,,,,,
acc,1778672783.0,202.0,-2.0531187628861085,1.1438837418665047,-9.82412434863531,,,,,,,,,,
acc,1778672783.0,202.0,-2.052565076512574,1.146480885176895,-9.8256870609355,,,,,,,,,,
acc,1778672783.0,202.0,-2.0520164215671515,1.1486994569218458,-9.827235572643128,,,,,,,,,,
acc,1778672783.0,202.0,-2.0507628104341284,1.150223429746314,-9.828415041854058,,,,,,,,,,
acc,1778672783.0,202.0,-2.049520591046374,1.1527629633910461,-9.831997564591857,,,,,,,,,,
acc,1778672783.0,202.0,-2.0479346980283863,1.1566637820739398,-9.833453237481452,,,,,,,,,,
acc,1778672783.0,202.0,-2.0470731490466907,1.1619490190513941,-9.83596057711515,,,,,,,,,,
acc,1778672783.0,202.0,-2.04724882936557,1.1685705995416253,-9.839439038105647,,,,,,,,,,
acc,1778672783.0,202.0,-2.047422913252122,1.1754869797170966,-9.840827089267313,,,,,,,,,,
acc,1778672783.0,202.0,-2.0469209858789705,1.1826599772351847,-9.844261327553738,,,,,,,,,,
acc,1778672783.0,202.0,-2.045713677718394,1.1873540212208253,-9.84493111946772,,,,,,,,,,
acc,1778672783.0,202.0,-2.044517340540339,1.1895561439232774,-9.845594824886454,,,,,,,,,,
acc,1778672783.0,202.0,-2.043686845583831,1.1920932174678307,-9.848346803094449,,,,,,,,,,
acc,1778672783.0,202.0,-2.0421539646757183,1.19425227441593,-9.848979469714351,,,,,,,,,,
acc,1778672783.0,202.0,-2.040280051431665,1.1960367407729435,-9.850990749299296,,,,,,,,,,
acc,1778672783.0,202.0,-2.0384231667054284,1.1981599623589307,-9.850889457233487,,,,,,,,,,
acc,1778672783.0,202.0,-2.0372930794397104,1.201293290172312,-9.849440208815457,,,,,,,,,,
acc,1778672783.0,202.0,-2.03617326143848,1.206172972364812,-9.851092339738063,,,,,,,,,,
acc,1778672783.0,202.0,-2.0347086575440763,1.2123926833532226,-9.849286285869148,,,,,,,,,,
acc,1778672783.0,202.0,-2.0325829243173605,1.2182009040149342,-9.849519949973189,,,,,,,,,,
acc,1778672784.0,203.0,-2.0297665751707012,1.2225719824784753,-9.85156182155047,,,,,,,,,,
acc,1778672784.0,203.0,-2.0269758185901994,1.2289976442388348,-9.848651103405036,,,,,,,,,,
acc,1778672784.0,203.0,-2.0245653929340977,1.2350099441735984,-9.84995544317654,,,,,,,,,,
acc,1778672784.0,203.0,-2.019017663587513,1.2385183437526126,-9.851247930226837,,,,,,,,,,
acc,1778672784.0,203.0,-2.014940212750959,1.2416398910858557,-9.848695026315255,,,,,,,,,,
acc,1778672784.0,203.0,-2.0122841854240923,1.2443781106431955,-9.850389423138264,,,,,,,,,,
acc,1778672784.0,203.0,-2.008587399216894,1.2457070764802407,-9.849548159210029,,,,,,,,,,
acc,1778672784.0,203.0,-2.0046047296801324,1.248408336941943,-9.847010701376814,,,,,,,,,,
acc,1778672784.0,203.0,-2.002397593264342,1.2507655741163084,-9.848010471136392,,,,,,,,,,
acc,1778672784.0,203.0,-2.000210513410333,1.2527464289147006,-9.846906851986388,,,,,,,,,,
acc,1778672784.0,203.0,-1.9990727080620305,1.2547092834046254,-9.846487699954697,,,,,,,,,,
acc,1778672784.0,203.0,-1.9965608710015548,1.2580386722682309,-9.845397918444158,,,,,,,,,,
acc,1778672784.0,203.0,-1.993716897535864,1.2658813760139576,-9.845666916674562,,,,,,,,,,
acc,1778672784.0,203.0,-1.992283138763136,1.2764215451198788,-9.843164728273187,,,,,,,,,,
acc,1778672784.0,203.0,-1.9933116744140842,1.2896346764171285,-9.842105143076624,,,,,,,,,,
acc,1778672784.0,203.0,-1.9929464925196967,1.300988396115956,-9.839635321019502,,,,,,,,,,
acc,1778672784.0,203.0,-1.9897803925342086,1.3091152389517948,-9.836123048034965,,,,,,,,,,
acc,1778672784.0,203.0,-1.9859686249842008,1.318907574015026,-9.833707586118486,,,,,,,,,,
acc,1778672784.0,203.0,-1.9832209047715694,1.326197153479879,-9.832024015658199,,,,,,,,,,
acc,1778672784.0,203.0,-1.9801431825750198,1.3299418166168862,-9.83110117112856,,,,,,,,,,
acc,1778672784.0,203.0,-1.977093428074431,1.3353917934560753,-9.83047068570626,,,,,,,,,,
acc,1778672784.0,203.0,-1.9744263580270562,1.343560978653459,-9.82849705288133,,,,,,,,,,
acc,1778672784.0,203.0,-1.9721384858372006,1.352685329483767,-9.826896325639238,,,,,,,,,,
acc,1778672784.0,203.0,-1.9688065093318134,1.3589580329975621,-9.825310144431214,,,,,,,,,,
acc,1778672784.0,203.0,-1.96585977278077,1.3637893645029129,-9.822673473457836,,,,,,,,,,
acc,1778672784.0,203.0,-1.9646791556055199,1.3689317639192595,-9.821800095163542,,,,,,,,,,
acc,1778672784.0,203.0,-1.9642191904906001,1.375411795603168,-9.821218626465958,,,,,,,,,,
acc,1778672784.0,203.0,-1.963053481518979,1.3832173133866268,-9.818938603148496,,,,,,,,,,
acc,1778672784.0,203.0,-1.9615788889738321,1.3923362723886143,-9.818383137228032,,,,,,,,,,
acc,1778672784.0,203.0,-1.96011769625849,1.4034666698906058,-9.815809412956241,,,,,,,,,,
acc,1778672784.0,203.0,-1.9604091235553014,1.4127565819574373,-9.813259076478673,,,,,,,,,,
acc,1778672784.0,203.0,-1.9603429317146972,1.419512809723726,-9.812116286315709,,,,,,,,,,
acc,1778672784.0,203.0,-1.9592124468550158,1.424823271653188,-9.810628919038638,,,,,,,,,,
acc,1778672784.0,203.0,-1.9574177965298574,1.4297305148612698,-9.810184467825174,,,,,,,,,,
acc,1778672784.0,203.0,-1.9566688545905953,1.433918726922605,-9.809069617063336,,,,,,,,,,
acc,1778672784.0,203.0,-1.9569916219869299,1.4380688801132806,-9.807645429663122,,,,,,,,,,
acc,1778672784.0,203.0,-1.955891590951033,1.4421813202797893,-9.809002917039281,,,,,,,,,,
acc,1778672784.0,203.0,-1.9541271177159283,1.4459014192329802,-9.811058001435931,,,,,,,,,,
acc,1778672784.0,203.0,-1.954792449667789,1.4492327513203642,-9.813058916629512,,,,,,,,,,
acc,1778672784.0,203.0,-1.9582559720771662,1.4515044109883923,-9.815396611030925,,,,,,,,,,
acc,1778672784.0,203.0,-1.9603036499458342,1.4534004568756307,-9.817003138867793,,,,,,,,,,
acc,1778672784.0,203.0,-1.9602384165596474,1.454569340434291,-9.817885126180014,,,,,,,,,,
acc,1778672784.0,203.0,-1.9587894049352659,1.4560825730744713,-9.817339233364077,,,,,,,,,,
acc,1778672784.0,203.0,-1.9590929025928738,1.4575820547578588,-9.816549831525743,,,,,,,,,,
acc,1778672784.0,203.0,-1.960423042454781,1.4576835394223997,-9.815732099642469,,,,,,,,,,
acc,1778672784.0,203.0,-1.9610311624598618,1.4570741691917557,-9.814247369363205,,,,,,,,,,
acc,1778672784.0,203.0,-1.9609593180672413,1.4568253072815973,-9.814834931289658,,,,,,,,,,
acc,1778672784.0,203.0,-1.960533155647171,1.4565787068144078,-9.816482057534074,,,,,,,,,,
acc,1778672784.0,203.0,-1.9614952368357488,1.4563343472401293,-9.818824148798965,,,,,,,,,,
acc,1778672784.0,203.0,-1.963158508144048,1.456092208195446,-9.821499918952666,,,,,,,,,,
acc,1778672784.0,203.0,-1.96306733226723,1.4565621930999193,-9.82305098516285,,,,,,,,,,
acc,1778672784.0,203.0,-1.9622670522342887,1.4605065818813419,-9.822813120364074,,,,,,,,,,
acc,1778672784.0,203.0,-1.9611190826597382,1.466154460253113,-9.822932387961078,,,,,,,,,,
acc,1778672784.0,203.0,-1.9614014102094617,1.4731353865679429,-9.821701695116925,,,,,,,,,,
acc,1778672784.0,203.0,-1.9620006396441791,1.4751898396354686,-9.822221518547995,,,,,,,,,,
acc,1778672784.0,203.0,-1.9619199854791363,1.4765156909208113,-9.824511454515903,,,,,,,,,,
acc,1778672784.0,203.0,-1.9618400642297413,1.4799237886003005,-9.825680183590965,,,,,,,,,,
acc,1778672784.0,203.0,-1.9631452402314415,1.48120662183363,-9.828293651981811,,,,,,,,,,
acc,1778672784.0,203.0,-1.964083585034252,1.484572092367395,-9.831486821012708,,,,,,,,,,
acc,1778672784.0,203.0,-1.9646584411719867,1.4879069804013036,-9.83259216396393,,,,,,,,,,
acc,1778672784.0,203.0,-1.963488740726326,1.4908566020482312,-9.837521098962634,,,,,,,,,,
acc,1778672784.0,203.0,-1.9623296695115904,1.4934244582779994,-9.8375422074855,,,,,,,,,,
acc,1778672784.0,203.0,-1.9615360927323469,1.4984182454972754,-9.838592524299163,,,,,,,,,,
acc,1778672784.0,203.0,-1.9624890600758356,1.503721615270123,-9.837893963957644,,,,,,,,,,
acc,1778672784.0,203.0,-1.962758938447929,1.5096512308949652,-9.83968651134482,,,,,,,,,,
acc,1778672784.0,203.0,-1.96196146084497,1.5152074958461617,-9.839332971586046,,,,,,,,,,
acc,1778672784.0,203.0,-1.9615261918244518,1.5196483666927085,-9.837988738751383,,,,,,,,,,
acc,1778672784.0,203.0,-1.961804819912608,1.527882519153282,-9.836621226785772,,,,,,,,,,
acc,1778672784.0,203.0,-1.9613709743107242,1.5374262177044145,-9.834946674161635,,,,,,,,,,
acc,1778672784.0,203.0,-1.9602311475412821,1.5454988203608258,-9.83534613862967,,,,,,,,,,
acc,1778672784.0,203.0,-1.959101678536228,1.55488243713119,-9.836806876656167,,,,,,,,,,
acc,1778672784.0,203.0,-1.958692396754692,1.5627964126952327,-9.839674206090569,,,,,,,,,,
acc,1778672784.0,203.0,-1.9582868341736102,1.5692541109755223,-9.841770043586862,,,,,,,,,,
acc,1778672784.0,203.0,-1.9571750334157227,1.5766825273499196,-9.846260616073105,,,,,,,,,,
acc,1778672784.0,203.0,-1.9557538592303967,1.584753373339141,-9.847941640158579,,,,,,,,,,
acc,1778672784.0,203.0,-1.953280704996514,1.593780278523625,-9.849962350334161,,,,,,,,,,
acc,1778672784.0,203.0,-1.9515399573244958,1.6027251549664643,-9.852000201484252,,,,,,,,,,
acc,1778672784.0,203.0,-1.9501699898574008,1.6115887480744302,-9.85398403094923,,,,,,,,,,
acc,1778672784.0,203.0,-1.9477475770216743,1.620016825604816,-9.854210500323882,,,,,,,,,,
acc,1778672784.0,203.0,-1.9460571096518289,1.6294332195638068,-9.853724979075853,,,,,,,,,,
acc,1778672784.0,203.0,-1.944382003793707,1.6373796744777882,-9.853208375465433,,,,,,,,,,
acc,1778672784.0,203.0,-1.9430770816429879,1.6438340535268154,-9.85340639896669,,,,,,,,,,
acc,1778672784.0,203.0,-1.9417840175009968,1.6502297807374502,-9.853247661213262,,,,,,,,,,
acc,1778672784.0,203.0,-1.941177141912934,1.6569223599617404,-9.85486519304303,,,,,,,,,,
acc,1778672784.0,203.0,-1.9405757810875603,1.662169751828323,-9.857213453159275,,,,,,,,,,
acc,1778672784.0,203.0,-1.941044788446381,1.6670144890428746,-9.858085014626928,,,,,,,,,,
acc,1778672784.0,203.0,-1.9415095338702626,1.672170172331984,-9.859694083116263,,,,,,,,,,
acc,1778672784.0,203.0,-1.9409051525545238,1.6762496051267137,-9.860188131882328,,,,,,,,,,
acc,1778672784.0,203.0,-1.94030626333563,1.6806114349747903,-9.858618890989824,,,,,,,,,,
acc,1778672784.0,203.0,-1.9393578545201873,1.685998531802209,-9.858057815729559,,,,,,,,,,
acc,1778672784.0,203.0,-1.938418064027163,1.6885324390606453,-9.856543427677144,,,,,,,,,,
acc,1778672784.0,203.0,-1.9364574043710279,1.6903688820555036,-9.856036706800294,,,,,,,,,,
acc,1778672784.0,203.0,-1.9358989324552611,1.6908042660840148,-9.853795257826768,,,,,,,,,,
acc,1778672784.0,203.0,-1.9346710971550318,1.6898158284030032,-9.855407813559927,,,,,,,,,,
acc,1778672784.0,203.0,-1.9323895249226748,1.6902562381058597,-9.853172079428747,,,,,,,,,,
acc,1778672784.0,203.0,-1.929418752996963,1.693106416776537,-9.852660500098859,,,,,,,,,,
acc,1778672784.0,203.0,-1.927184909543408,1.6969955990062795,-9.851195158203828,,,,,,,,,,
acc,1778672784.0,203.0,-1.9253263271190588,1.6994295743870131,-9.851092008662862,,,,,,,,,,
acc,1778672784.0,203.0,-1.9227747012354586,1.7015219644731987,-9.849960387290636,,,,,,,,,,
acc,1778672784.0,203.0,-1.9198913005458693,1.702885398978849,-9.850578390938288,,,,,,,,,,
acc,1778672784.0,203.0,-1.917744034372184,1.7042364437663,-9.84874151331508,,,,,,,,,,
acc,1778672784.0,203.0,-1.915616280703602,1.7062851531638878,-9.848660660383974,,,,,,,,,,
acc,1778672784.0,203.0,-1.9135078622272566,1.7072503421313108,-9.84783510607288,,,,,,,,,,
acc,1778672784.0,203.0,-1.9103891940788045,1.707532322000452,-9.846378118843655,,,,,,,,,,
acc,1778672784.0,203.0,-1.9079733039917603,1.7091961104246611,-9.84560880975126,,,,,,,,,,
acc,1778672784.0,203.0,-1.9062893000850694,1.716417748824874,-9.84385258576334,,,,,,,,,,
acc,1778672784.0,203.0,-1.9042656371723863,1.7232188014146814,-9.843461188321784,,,,,,,,,,
acc,1778672784.0,203.0,-1.9008759926214884,1.729603081028678,-9.844493212866974,,,,,,,,,,
acc,1778672784.0,203.0,-1.8978721120220254,1.735929345810236,-9.84235666123408,,,,,,,,,,
acc,1778672784.0,203.0,-1.8966348699124664,1.7421981229482457,-9.845457532000859,,,,,,,,,,
acc,1778672784.0,203.0,-1.8946989381421109,1.749439334913194,-9.841572884745602,,,,,,,,,,
acc,1778672784.0,203.0,-1.890331323991202,1.7521066794662372,-9.842941545072186,,,,,,,,,,
acc,1778672784.0,203.0,-1.886003398954351,1.7540398528398549,-9.839399228361426,,,,,,,,,,
acc,1778672784.0,203.0,-1.882424744108317,1.7587596954394358,-9.837344460833668,,,,,,,,,,
acc,1778672784.0,203.0,-1.8795885325566137,1.7662053809672689,-9.838396574561303,,,,,,,,,,
acc,1778672784.0,203.0,-1.8767780940515801,1.7760326718900472,-9.834931052989456,,,,,,,,,,
acc,1778672784.0,203.0,-1.8750226035467583,1.785770660861025,-9.83494020325581,,,,,,,,,,
acc,1778672784.0,203.0,-1.87292809455886,1.7964495685359059,-9.835694697382099,,,,,,,,,,
acc,1778672784.0,203.0,-1.8712075895317122,1.8080963299295345,-9.836797297096725,,,,,,,,,,
acc,1778672784.0,203.0,-1.869857680752315,1.8175429520071502,-9.838244848203084,,,,,,,,,,
acc,1778672784.0,203.0,-1.8692299714288487,1.8244544659592767,-9.83825937991598,,,,,,,,,,
acc,1778672784.0,203.0,-1.8678980335388393,1.8278244995100428,-9.840368074073291,,,,,,,,,,
acc,1778672784.0,203.0,-1.865868266504874,1.829069614604686,-9.841037740939882,,,,,,,,,,
acc,1778672784.0,203.0,-1.8635019824643777,1.832042747880812,-9.839287560536892,,,,,,,,,,
acc,1778672784.0,203.0,-1.8608377246674448,1.8346693964644325,-9.841386911472924,,,,,,,,,,
acc,1778672784.0,203.0,-1.8578427155694446,1.8390115090426116,-9.83895911982394,,,,,,,,,,
acc,1778672784.0,203.0,-1.8552298843128512,1.8429592024638783,-9.836872857272457,,,,,,,,,,
acc,1778672785.0,204.0,-1.851220930921972,1.8461610809158158,-9.836864362095529,,,,,,,,,,
acc,1778672785.0,204.0,-1.8462190073792388,1.849688834322498,-9.834442164030968,,,,,,,,,,
acc,1778672785.0,204.0,-1.8422919370719104,1.8538944631925562,-9.83413628039257,,,,,,,,,,
acc,1778672785.0,204.0,-1.8380810851762404,1.8573519422861278,-9.83415265286704,,,,,,,,,,
acc,1778672785.0,204.0,-1.833198565227917,1.8611329736558526,-9.831755096480315,,,,,,,,,,
acc,1778672785.0,204.0,-1.8290703460583329,1.8666189789806213,-9.830444230531405,,,,,,,,,,
acc,1778672785.0,204.0,-1.8235597752962396,1.871700161350944,-9.829784211439586,,,,,,,,,,
acc,1778672785.0,204.0,-1.8184542507179706,1.875350808472741,-9.826361457260482,,,,,,,,,,
acc,1778672785.0,204.0,-1.8158443860995832,1.8786133107938934,-9.82478013663744,,,,,,,,,,
acc,1778672785.0,204.0,-1.8118738667526997,1.8835854990133263,-9.82392311833793,,,,,,,,,,
acc,1778672785.0,204.0,-1.8079394280635244,1.886063238920199,-9.820908595588389,,,,,,,,,,
acc,1778672785.0,204.0,-1.8047151804459112,1.8888734250408796,-9.820335228126655,,,,,,,,,,
acc,1778672785.0,204.0,-1.8022301646557264,1.8909836454156939,-9.819518601324168,,,,,,,,,,
acc,1778672785.0,204.0,-1.7997677305472009,1.8920097864171825,-9.818354424456707,,,,,,,,,,
acc,1778672785.0,204.0,-1.7976826346957313,1.8961503063659049,-9.817520294043078,,,,,,,,,,
acc,1778672785.0,204.0,-1.7945515919764854,1.9016730661251355,-9.8169777165451,,,,,,,,,,
acc,1778672785.0,204.0,-1.7914490014747537,1.9074651072215865,-9.814736231179753,,,,,,,,,,
acc,1778672785.0,204.0,-1.7877001663584917,1.911145715119263,-9.813260550592084,,,,,,,,,,
acc,1778672785.0,204.0,-1.7832754647815063,1.9147928768248144,-9.811407814492217,,,,,,,,,,
acc,1778672785.0,204.0,-1.778536009300763,1.9180519344905775,-9.81131124716425,,,,,,,,,,
acc,1778672785.0,204.0,-1.7738396219062615,1.920926405784505,-9.812599928281935,,,,,,,,,,
acc,1778672785.0,204.0,-1.7716351765772522,1.9223903854362707,-9.811108166214133,,,,,,,,,,
acc,1778672785.0,204.0,-1.7690958015696316,1.924196032567608,-9.813818558040577,,,,,,,,,,
acc,1778672785.0,204.0,-1.7644851986468941,1.9273696424583342,-9.813061149119392,,,,,,,,,,
acc,1778672785.0,204.0,-1.7595615220447023,1.9280651388874412,-9.811920157652695,,,,,,,,,,
acc,1778672785.0,204.0,-1.755037558435902,1.9304936479454338,-9.812173905456476,,,,,,,,,,
acc,1778672785.0,204.0,-1.7505547047087964,1.934994392371481,-9.812744814835959,,,,,,,,,,
acc,1778672785.0,204.0,-1.7461125872921925,1.9401641705534167,-9.812600603641478,,,,,,,,,,
acc,1778672785.0,204.0,-1.7413558651452707,1.945606437664446,-9.812102732049702,,,,,,,,,,
acc,1778672785.0,204.0,-1.7352579970664779,1.9492599174436374,-9.81650792445479,,,,,,,,,,
acc,1778672785.0,204.0,-1.7299254828847659,1.9522057683540932,-9.814661173386016,,,,,,,,,,
acc,1778672785.0,204.0,-1.725670826053073,1.9557992791045218,-9.815599945842909,,,,,,,,,,
acc,1778672785.0,204.0,-1.7207803935943793,1.9607800004088594,-9.819298920301181,,,,,,,,,,
acc,1778672785.0,204.0,-1.716253868586819,1.9681292321903483,-9.820515016329022,,,,,,,,,,
acc,1778672785.0,204.0,-1.710384105815354,1.9754116804886244,-9.822820459389375,,,,,,,,,,
acc,1778672785.0,204.0,-1.7038932531948296,1.982627952174448,-9.819460985805971,,,,,,,,,,
acc,1778672785.0,204.0,-1.6971064129837756,1.9887492485469431,-9.817906876367294,,,,,,,,,,
acc,1778672785.0,204.0,-1.6900262839494289,1.9951698816314114,-9.816721851112108,,,,,,,,,,
acc,1778672785.0,204.0,-1.6830104930243726,2.001851646040735,-9.813098329007813,,,,,,,,,,
acc,1778672785.0,204.0,-1.6767683881994397,2.0070883214150466,-9.813305876245284,,,,,,,,,,
acc,1778672785.0,204.0,-1.67196737716198,2.0143717139577078,-9.8125176226892,,,,,,,,,,
acc,1778672785.0,204.0,-1.6685943554065794,2.0247126249232754,-9.812056008605232,,,,,,,,,,
acc,1778672785.0,204.0,-1.6652519847651455,2.0349595666044715,-9.813018454551745,,,,,,,,,,
acc,1778672785.0,204.0,-1.661585024930479,2.045113392913187,-9.813226727619277,,,,,,,,,,
acc,1778672785.0,204.0,-1.6579513872656222,2.055529911777929,-9.813468602440913,,,,,,,,,,
acc,1778672785.0,204.0,-1.6550607016069099,2.0672361452178305,-9.814737679368179,,,,,,,,,,
acc,1778672785.0,204.0,-1.650811913088853,2.0781615642206708,-9.81599522401837,,,,,,,,,,
acc,1778672785.0,204.0,-1.6458918012587491,2.0882777697948858,-9.815218035436645,,,,,,,,,,
acc,1778672785.0,204.0,-1.642400770081656,2.0979470862378164,-9.815761282385505,,,,,,,,,,
acc,1778672785.0,204.0,-1.6392964241623178,2.106499127126632,-9.818819855915066,,,,,,,,,,
acc,1778672785.0,204.0,-1.6355103552234442,2.115683396166643,-9.81968533440078,,,,,,,,,,
acc,1778672785.0,204.0,-1.6314392233994048,2.1240742647612496,-9.817774215415872,,,,,,,,,,
acc,1778672785.0,204.0,-1.627724553927366,2.130649551682431,-9.817974766589101,,,,,,,,,,
acc,1778672785.0,204.0,-1.622304307475901,2.133686422678294,-9.815014297355482,,,,,,,,,,
acc,1778672785.0,204.0,-1.6183531808287117,2.134246422789879,-9.814849463061272,,,,,,,,,,
acc,1778672785.0,204.0,-1.6137280259756108,2.136185705020258,-9.81120745216638,,,,,,,,,,
acc,1778672785.0,204.0,-1.6091449005424203,2.140911600919475,-9.81075774378338,,,,,,,,,,
acc,1778672785.0,204.0,-1.6049583934647715,2.144884619312598,-9.808963245405893,,,,,,,,,,
acc,1778672785.0,204.0,-1.6004549588914465,2.1537200740878997,-9.807859492160803,,,,,,,,,,
acc,1778672785.0,204.0,-1.5973768185654225,2.162794707282858,-9.810599405120263,,,,,,,,,,
acc,1778672785.0,204.0,-1.595391544138658,2.171467410619389,-9.810510183920265,,,,,,,,,,
acc,1778672785.0,204.0,-1.5940987484523177,2.1789964004042224,-9.809747335207623,,,,,,,,,,
acc,1778672785.0,204.0,-1.5914333296626624,2.1847176405294424,-9.81211512221377,,,,,,,,,,
acc,1778672785.0,204.0,-1.588082199263062,2.190741852732278,-9.811657165708345,,,,,,,,,,
acc,1778672785.0,204.0,-1.5858264245478169,2.197421254726186,-9.810564426799148,,,,,,,,,,
acc,1778672785.0,204.0,-1.584620548421455,2.201235732969288,-9.811540426952321,,,,,,,,,,
acc,1778672785.0,204.0,-1.582751191980046,2.204305606797838,-9.810448748864497,,,,,,,,,,
acc,1778672785.0,204.0,-1.58018889000064,2.2101518204503443,-9.812100238476395,,,,,,,,,,
acc,1778672785.0,204.0,-1.5790342429276891,2.2166548413910783,-9.814446644325006,,,,,,,,,,
acc,1778672785.0,204.0,-1.5778900882918614,2.2216789032089572,-9.815742328007543,,,,,,,,,,
acc,1778672785.0,204.0,-1.5757269306943558,2.225272948856778,-9.818091141133651,,,,,,,,,,
acc,1778672785.0,204.0,-1.5728734973706986,2.227804925776744,-9.82038310682388,,,,,,,,,,
acc,1778672785.0,204.0,-1.5700459935889859,2.2261252962565337,-9.822334777690912,,,,,,,,,,
acc,1778672785.0,204.0,-1.5668892128616685,2.225490329813605,-9.827001960924727,,,,,,,,,,
acc,1778672785.0,204.0,-1.565180983510442,2.2273103987249763,-9.82779308749291,,,,,,,,,,
acc,1778672785.0,204.0,-1.562068411800418,2.235396839073723,-9.830706831983617,,,,,,,,,,
acc,1778672785.0,204.0,-1.5604039897328048,2.2413154932731034,-9.8318547571002,,,,,,,,,,
acc,1778672785.0,204.0,-1.560139063412009,2.2457604985718382,-9.834376621777098,,,,,,,,,,
acc,1778672785.0,204.0,-1.5588116410141115,2.2536792803197763,-9.836911064282152,,,,,,,,,,
acc,1778672785.0,204.0,-1.5571768136716537,2.258366895956692,-9.838322087186901,,,,,,,,,,
acc,1778672785.0,204.0,-1.5548469095936726,2.265106218134897,-9.840820676703892,,,,,,,,,,
acc,1778672785.0,204.0,-1.5528931485371655,2.2728492026624707,-9.840776307148086,,,,,,,,,,
acc,1778672785.0,204.0,-1.5509571415766537,2.2822611583108627,-9.843217100469797,,,,,,,,,,
acc,1778672785.0,204.0,-1.5490387273782156,2.2933269189093695,-9.84002725067941,,,,,,,,,,
acc,1778672785.0,204.0,-1.5460728425753685,2.3014878872294697,-9.840735518091948,,,,,,,,,,
acc,1778672785.0,204.0,-1.5431339091764769,2.3064509921044327,-9.839343045830978,,,,,,,,,,
acc,1778672785.0,204.0,-1.540576653132286,2.3138182709730515,-9.839667065485207,,,,,,,,,,
acc,1778672785.0,204.0,-1.5380426352261949,2.320763631501426,-9.839633178953472,,,,,,,,,,
acc,1778672785.0,204.0,-1.535886606064724,2.3259065458938464,-9.83864118902224,,,,,,,,,,
acc,1778672785.0,204.0,-1.533040236400898,2.3295828606414952,-9.841740328371705,,,,,,,,,,
acc,1778672785.0,204.0,-1.529545302901212,2.3314864264358093,-9.84172309617458,,,,,,,,,,
acc,1778672785.0,204.0,-1.5264370901184865,2.336531901312674,-9.841706020568804,,,,,,,,,,
acc,1778672785.0,204.0,-1.5226471894573086,2.3397921854896566,-9.840695194440537,,,,,,,,,,
acc,1778672785.0,204.0,-1.519246699007419,2.3440522521530256,-9.841042421293988,,,,,,,,,,
acc,1778672785.0,204.0,-1.5151671675594507,2.3510778431885675,-9.83968265452216,,,,,,,,,,
acc,1778672785.0,204.0,-1.5104502781868625,2.3569746882123477,-9.840713520741469,,,,,,,,,,
acc,1778672785.0,204.0,-1.5060957192524809,2.362817947792816,-9.839676210148914,,,,,,,,,,
acc,1778672785.0,204.0,-1.5035200634819303,2.366513805319906,-9.840352164067378,,,,,,,,,,
acc,1778672785.0,204.0,-1.500293383861344,2.3695016398042967,-9.842086878997154,,,,,,,,,,
acc,1778672785.0,204.0,-1.4974509872975499,2.3731367617010597,-9.841321061563555,,,,,,,,,,
acc,1778672785.0,204.0,-1.4946344199829942,2.3760644124682466,-9.84308246634816,,,,,,,,,,
acc,1778672785.0,204.0,-1.491843447203726,2.3803498301814607,-9.842343105322401,,,,,,,,,,
acc,1778672785.0,204.0,-1.4890778363786727,2.386335638399717,-9.839161197649918,,,,,,,,,,
acc,1778672785.0,204.0,-1.4856274244043437,2.3922670527539145,-9.840232296779226,,,,,,,,,,
acc,1778672785.0,204.0,-1.4811789667488087,2.3981445675285986,-9.837069570315029,,,,,,,,,,
acc,1778672785.0,204.0,-1.4778003328911191,2.4029392724664906,-9.836065372802393,,,,,,,,,,
acc,1778672785.0,204.0,-1.4758367720564396,2.406625512849822,-9.837484080619818,,,,,,,,,,
acc,1778672785.0,204.0,-1.4728616543195152,2.4102782558588856,-9.83612115462072,,,,,,,,,,
acc,1778672785.0,204.0,-1.4709429719374365,2.4177314421219807,-9.835445051993709,,,,,,,,,,
acc,1778672785.0,204.0,-1.4683672866108073,2.425471862028881,-9.835130054978714,,,,,,,,,,
acc,1778672785.0,204.0,-1.4675543395772657,2.4317575818493764,-9.834427455163583,,,,,,,,,,
acc,1778672785.0,204.0,-1.468488112590996,2.439015582517738,-9.834086210831172,,,,,,,,,,
acc,1778672785.0,204.0,-1.4690584385064536,2.4462076287340335,-9.836587797975529,,,,,,,,,,
acc,1778672785.0,204.0,-1.4689136491561432,2.4536892816096936,-9.835907454896224,,,,,,,,,,
acc,1778672785.0,204.0,-1.4691251463879602,2.4576242823041694,-9.835588255962431,,,,,,,,,,
acc,1778672785.0,204.0,-1.4703641217650405,2.4621979633807385,-9.835271957633326,,,,,,,,,,
acc,1778672785.0,204.0,-1.469852496629814,2.4664106062858986,-9.83531350441204,,,,,,,,,,
acc,1778672785.0,204.0,-1.4686710915143224,2.4698750356891086,-9.83496420842815,,,,,,,,,,
acc,1778672785.0,204.0,-1.4681748511782107,2.472953021570872,-9.833624180855349,,,,,,,,,,
acc,1778672785.0,204.0,-1.4670086910580937,2.4735537629632804,-9.835420033893618,,,,,,,,,,
acc,1778672785.0,204.0,-1.4651431953602436,2.476243348882124,-9.833046464122573,,,,,,,,,,
acc,1778672785.0,204.0,-1.4629396808175472,2.4782340558877864,-9.831404395942421,,,,,,,,,,
acc,1778672785.0,204.0,-1.4600817607268384,2.481591043975362,-9.83286545869763,,,,,,,,,,
acc,1778672785.0,204.0,-1.4589891436344973,2.4856274592850363,-9.830515102703487,,,,,,,,,,
acc,1778672785.0,204.0,-1.4575514844429767,2.4878523680880127,-9.831629275727519,,,,,,,,,,
acc,1778672785.0,204.0,-1.4543875567739268,2.4900570588381825,-9.829609620512537,,,,,,,,,,
acc,1778672785.0,204.0,-1.4512523801514805,2.4936615805303006,-9.827963289043929,,,,,,,,,,
acc,1778672786.0,205.0,-1.4488556259461518,2.498617709260594,-9.828745679888852,,,,,,,,,,
acc,1778672786.0,205.0,-1.4464806513764688,2.5042387426887025,-9.82675222830661,,,,,,,,,,
acc,1778672786.0,205.0,-1.44412725852788,2.508388831741301,-9.825522318488686,,,,,,,,,,
acc,1778672786.0,205.0,-1.442469689559509,2.5135661027721503,-9.82597192899515,,,,,,,,,,
acc,1778672786.0,205.0,-1.4397977830995143,2.5148626909981044,-9.825068577278648,,,,,,,,,,
acc,1778672786.0,205.0,-1.4371501566216003,2.516821935223392,-9.825877272767952,,,,,,,,,,
acc,1778672786.0,205.0,-1.4345265894902228,2.5184438990253493,-9.825010284652784,,,,,,,,,,
acc,1778672786.0,205.0,-1.43228182484876,2.520051123818801,-9.826919907711337,,,,,,,,,,
acc,1778672786.0,205.0,-1.4307318969679272,2.524412485359496,-9.827356818131983,,,,,,,,,,
acc,1778672786.0,205.0,-1.429905986130311,2.530828518152256,-9.828890156143565,,,,,,,,,,
acc,1778672786.0,205.0,-1.428022676962131,2.536831276710102,-9.829699627866377,,,,,,,,,,
acc,1778672786.0,205.0,-1.426156481683796,2.54175008732504,-9.828797905484102,,,,,,,,,,
acc,1778672786.0,205.0,-1.4243072447790304,2.5452398291203093,-9.831028080771313,,,,,,,,,,
acc,1778672786.0,205.0,-1.4228297830058143,2.549372297426177,-9.83011428655457,,,,,,,,,,
acc,1778672786.0,205.0,-1.4217207089051667,2.5552065461071622,-9.831587072710656,,,,,,,,,,
acc,1778672786.0,205.0,-1.420976683974689,2.5616977108016505,-9.832691504595022,,,,,,,,,,
acc,1778672786.0,205.0,-1.4202394201012445,2.568804327663361,-9.833075967719791,,,,,,,,,,
acc,1778672786.0,205.0,-1.420183285033988,2.5762013274925972,-9.834557335031082,,,,,,,,,,
acc,1778672786.0,205.0,-1.4194532308860242,2.5807623770329338,-9.834569881323809,,,,,,,,,,
acc,1778672786.0,205.0,-1.4190847726145372,2.586311379736606,-9.83603767323636,,,,,,,,,,
acc,1778672786.0,205.0,-1.4193941008490214,2.5893961869298123,-9.835681796630933,,,,,,,,,,
acc,1778672786.0,205.0,-1.4190261799003405,2.5924529620551287,-9.836394048333943,,,,,,,,,,
acc,1778672786.0,205.0,-1.4179516696651688,2.5975407690283996,-9.8343665893353,,,,,,,,,,
acc,1778672786.0,205.0,-1.416531961878675,2.6011979714891993,-9.833422457631647,,,,,,,,,,
acc,1778672786.0,205.0,-1.4137407842627474,2.6030826077639917,-9.83419074370636,,,,,,,,,,
acc,1778672786.0,205.0,-1.4106199996013253,2.6063344889989755,-9.83037297594995,,,,,,,,,,
acc,1778672786.0,205.0,-1.4082375156619054,2.612006085259431,-9.829713604368026,,,,,,,,,,
acc,1778672786.0,205.0,-1.4048117781865082,2.615531839399112,-9.828421289758776,,,,,,,,,,
acc,1778672786.0,205.0,-1.4003877708108268,2.6186705927514695,-9.826111318541791,,,,,,,,,,
acc,1778672786.0,205.0,-1.3970333650481241,2.623200689089238,-9.825526176674797,,,,,,,,,,
acc,1778672786.0,205.0,-1.3937094412326325,2.6276896198175965,-9.824946352072548,,,,,,,,,,
acc,1778672786.0,205.0,-1.390770684144482,2.632812188201729,-9.823022919866814,,,,,,,,,,
acc,1778672786.0,205.0,-1.3885685736686135,2.637213777913756,-9.823885707973346,,,,,,,,,,
acc,1778672786.0,205.0,-1.386741435847733,2.639836028003465,-9.822291390487646,,,,,,,,,,
acc,1778672786.0,205.0,-1.3852503688937194,2.642434449345418,-9.822415399107747,,,,,,,,,,
acc,1778672786.0,205.0,-1.384127822331395,2.6442993258400707,-9.821544366068778,,,,,,,,,,
acc,1778672786.0,205.0,-1.3840803709127023,2.6461472559451487,-9.820681248227011,,,,,,,,,,
acc,1778672786.0,205.0,-1.3847077889662742,2.6514570681081064,-9.820500411930643,,,,,,,,,,
acc,1778672786.0,205.0,-1.384974534724693,2.658812932820493,-9.820285724558662,,,,,,,,,,
acc,1778672786.0,205.0,-1.3855938273885384,2.6653920120553014,-9.819434044165682,,,,,,,,,,
acc,1778672786.0,205.0,-1.3865624633155167,2.6722662771517816,-9.819938979659053,,,,,,,,,,
acc,1778672786.0,205.0,-1.3871673262535447,2.6776937039452475,-9.819090450184756,,,,,,,,,,
acc,1778672786.0,205.0,-1.3874117218578836,2.6837462492385167,-9.81856910791558,,,,,,,,,,
acc,1778672786.0,205.0,-1.3873344291919318,2.6883594233098513,-9.818371970569185,,,,,,,,,,
acc,1778672786.0,205.0,-1.3869028771213707,2.6936406094675562,-9.818212118996954,,,,,,,,,,
acc,1778672786.0,205.0,-1.387149675811384,2.6992287756200786,-9.81769875824427,,,,,,,,,,
acc,1778672786.0,205.0,-1.3863648317594097,2.704766161337082,-9.818964889514234,,,,,,,,,,
acc,1778672786.0,205.0,-1.386297052327967,2.7112826281156646,-9.817450782543858,,,,,,,,,,
acc,1778672786.0,205.0,-1.3862298888175533,2.716710478814813,-9.82010353811223,,,,,,,,,,
acc,1778672786.0,205.0,-1.3861633356312093,2.7234733767961363,-9.821312322456352,,,,,,,,,,
acc,1778672786.0,205.0,-1.3853874545883342,2.7273705832139505,-9.820451313227023,,,,,,,,,,
acc,1778672786.0,205.0,-1.3842636623096831,2.732297269588439,-9.822366869925244,,,,,,,,,,
acc,1778672786.0,205.0,-1.382795111225441,2.7368242247115986,-9.820821848690445,,,,,,,,,,
acc,1778672786.0,205.0,-1.381694875927977,2.7423394428182464,-9.822379076508163,,,,,,,,,,
acc,1778672786.0,205.0,-1.3806046386201998,2.7502538086954598,-9.819733546495293,,,,,,,,,,
acc,1778672786.0,205.0,-1.3791693375882013,2.757066855591698,-9.821300663864903,,,,,,,,,,
acc,1778672786.0,205.0,-1.3774276119206494,2.7641374588061307,-9.820120293165143,,,,,,,,,,
acc,1778672786.0,205.0,-1.3749917809196872,2.769085010378989,-9.819589592571074,,,,,,,,,,
acc,1778672786.0,205.0,-1.3736074846986688,2.774662032056629,-9.81803431447825,,,,,,,,,,
acc,1778672786.0,205.0,-1.3719163003543642,2.776709709205027,-9.81855196950794,,,,,,,,,,
acc,1778672786.0,205.0,-1.3691755805399264,2.778064340554665,-9.815941216943628,,,,,,,,,,
acc,1778672786.0,205.0,-1.3685540695672256,2.7835597658221825,-9.8140996156418,,,,,,,,,,
acc,1778672786.0,205.0,-1.367583244576701,2.7879758533553023,-9.815362958456092,,,,,,,,,,
acc,1778672786.0,205.0,-1.365591841558485,2.7902575077495206,-9.81210674660002,,,,,,,,,,
acc,1778672786.0,205.0,-1.3650028965154806,2.7935478375712264,-9.814453093297745,,,,,,,,,,
acc,1778672786.0,205.0,-1.3668685686140378,2.7950689350302094,-9.81258952042057,,,,,,,,,,
acc,1778672786.0,205.0,-1.3676523926852804,2.798670504523142,-9.813866585678058,,,,,,,,,,
acc,1778672786.0,205.0,-1.3680741231784777,2.8046886204619823,-9.815167540427597,,,,,,,,,,
acc,1778672786.0,205.0,-1.3684920213485987,2.80578900359167,-9.814007407905375,,,,,,,,,,
acc,1778672786.0,205.0,-1.3675217601988472,2.8079087874363378,-9.81598152125834,,,,,,,,,,
acc,1778672786.0,205.0,-1.365885877671378,2.8103642793739985,-9.816517830302672,,,,,,,,,,
acc,1778672786.0,205.0,-1.3642648606337433,2.813826857966247,-9.817794692827132,,,,,,,,,,
acc,1778672786.0,205.0,-1.3619486413668502,2.8158736007211878,-9.818350019691632,,,,,,,,,,
acc,1778672786.0,205.0,-1.3589435372691103,2.8182567153035563,-9.821633547681968,,,,,,,,,,
acc,1778672786.0,205.0,-1.3566756736005197,2.822357506877811,-9.819349754166332,,,,,,,,,,
acc,1778672786.0,205.0,-1.3530440474127212,2.82816037576368,-9.821275320882979,,,,,,,,,,
acc,1778672786.0,205.0,-1.3494454223122652,2.837744140318938,-9.82009518047861,,,,,,,,,,
acc,1778672786.0,205.0,-1.3462344692744488,2.8447915505691532,-9.818180337178392,,,,,,,,,,
acc,1778672786.0,205.0,-1.3426977237484,2.852804320079765,-9.81663786518369,,,,,,,,,,
acc,1778672786.0,205.0,-1.3388381553424693,2.860424809036612,-9.816138809892394,,,,,,,,,,
acc,1778672786.0,205.0,-1.335723592000502,2.867266116926472,-9.815360316531544,,,,,,,,,,
acc,1778672786.0,205.0,-1.3336667311725146,2.8740452569093096,-9.812814061317791,,,,,,,,,,
acc,1778672786.0,205.0,-1.3316285613221541,2.8804078321398863,-9.813024191733199,,,,,,,,,,
acc,1778672786.0,205.0,-1.328224541693304,2.8867125897730523,-9.81326790702451,,,,,,,,,,
acc,1778672786.0,205.0,-1.324851454859642,2.8940249496131214,-9.809320800555618,,,,,,,,,,
acc,1778672786.0,205.0,-1.3228933906392066,2.9005609283979568,-9.810663063480417,,,,,,,,,,
acc,1778672786.0,205.0,-1.3192137869358536,2.906682552069842,-9.811638167303592,,,,,,,,,,
acc,1778672786.0,205.0,-1.3159225820716876,2.9110092059350294,-9.809800174046918,,,,,,,,,,
acc,1778672786.0,205.0,-1.312306323065844,2.913557210218515,-9.812557946107269,,,,,,,,,,
acc,1778672786.0,205.0,-1.3083679546429405,2.9171469639310987,-9.812770403876856,,,,,,,,,,
acc,1778672786.0,205.0,-1.305849745624871,2.920704097057299,-9.813016425373359,,,,,,,,,,
acc,1778672786.0,205.0,-1.3030349525053428,2.9242289060248776,-9.814289611286506,,,,,,,,,,
acc,1778672786.0,205.0,-1.2977964633950825,2.9301354555243257,-9.813137456627503,,,,,,,,,,
acc,1778672786.0,205.0,-1.2929605480175188,2.9359883313949986,-9.811285839122332,,,,,,,,,,
acc,1778672786.0,205.0,-1.289197977316861,2.94143305051587,-9.811509856703278,,,,,,,,,,
acc,1778672786.0,205.0,-1.284440197566512,2.941965256451561,-9.811057400331313,,,,,,,,,,
acc,1778672786.0,205.0,-1.2800806232766928,2.9432025587928385,-9.808550246309903,,,,,,,,,,
acc,1778672786.0,205.0,-1.2767900650866923,2.9458129885058453,-9.808834616959397,,,,,,,,,,
acc,1778672786.0,205.0,-1.274239341286365,2.949784058705897,-9.80560223468249,,,,,,,,,,
acc,1778672786.0,205.0,-1.2710018636302947,2.952334681422776,-9.803854585136856,,,,,,,,,,
acc,1778672786.0,205.0,-1.2677938053795599,2.955572058913954,-9.801022427955665,,,,,,,,,,
acc,1778672786.0,205.0,-1.2639049665617692,2.9611937888662996,-9.798925930523898,,,,,,,,,,
acc,1778672786.0,205.0,-1.2607613987920971,2.9657350333365233,-9.79542861898463,,,,,,,,,,
acc,1778672786.0,205.0,-1.2572914261950212,2.9709094400799474,-9.797571560350699,,,,,,,,,,
acc,1778672786.0,205.0,-1.2549178892116863,2.9781311298193156,-9.795896886648725,,,,,,,,,,
acc,1778672786.0,205.0,-1.2532403500729348,2.98461275679517,-9.79771610538842,,,,,,,,,,
acc,1778672786.0,205.0,-1.2515780549633715,2.9903255516998444,-9.799483298276954,,,,,,,,,,
acc,1778672786.0,205.0,-1.2495759035848808,2.9966963662846253,-9.800879461579669,,,,,,,,,,
acc,1778672786.0,205.0,-1.2475919460317066,3.0015894231315134,-9.803718297382455,,,,,,,,,,
acc,1778672786.0,205.0,-1.2432122460178512,3.002284912458803,-9.803656111396698,,,,,,,,,,
acc,1778672786.0,205.0,-1.2388723449412014,3.0068077180033304,-9.806824686260834,,,,,,,,,,
acc,1778672786.0,205.0,-1.2349268520039873,3.011608891604579,-9.807124737312115,,,,,,,,,,
acc,1778672786.0,205.0,-1.2306622414438202,3.016366436280088,-9.807777023531685,,,,,,,,,,
acc,1778672786.0,205.0,-1.2260814131264899,3.0210807484919155,-9.808742849750134,,,,,,,,,,
acc,1778672786.0,205.0,-1.2215422114269565,3.0215991174613483,-9.80969989937272,,,,,,,,,,
acc,1778672786.0,205.0,-1.2160148580306642,3.023497146848961,-9.809973822966484,,,,,,,,,,
acc,1778672786.0,205.0,-1.2098277998217601,3.025732890355639,-9.81091968656592,,,,,,,,,,
acc,1778672786.0,205.0,-1.2036969642628879,3.0272383847190096,-9.810153116650595,,,,,,,,,,
acc,1778672786.0,205.0,-1.1958825077691964,3.033273767306331,-9.811487816204192,,,,,,,,,,
acc,1778672786.0,205.0,-1.1877841005443703,3.0340363074952434,-9.80862178916122,,,,,,,,,,
acc,1778672786.0,205.0,-1.1801142464348184,3.038945022014413,-9.810325374959236,,,,,,,,,,
acc,1778672786.0,205.0,-1.1731885276200775,3.042424759460351,-9.810203149549636,,,,,,,,,,
acc,1778672786.0,205.0,-1.1663257437660193,3.0441335433710255,-9.809762567405587,,,,,,,,,,
acc,1778672787.0,206.0,-1.1616196265164822,3.048595532056542,-9.809006512391441,,,,,,,,,,
acc,1778672787.0,206.0,-1.1573112361760187,3.0498932704461663,-9.809996669522322,,,,,,,,,,
acc,1778672787.0,206.0,-1.152687034998433,3.052563587016665,-9.811687761593124,,,,,,,,,,
acc,1778672787.0,206.0,-1.1484598163472908,3.0580138742293377,-9.811588650348481,,,,,,,,,,
acc,1778672787.0,206.0,-1.1442710110142038,3.0630596630708613,-9.813975208504392,,,,,,,,,,
acc,1778672787.0,206.0,-1.1404752317055555,3.068769532768404,-9.813819816554725,,,,,,,,,,
acc,1778672787.0,206.0,-1.1367139451662391,3.0754569252284782,-9.814766234527784,,,,,,,,,,
acc,1778672787.0,206.0,-1.131247505273891,3.0820835484322817,-9.816059014043876,,,,,,,,,,
acc,1778672787.0,206.0,-1.1261857105343107,3.087940012877157,-9.813151447896717,,,,,,,,,,
acc,1778672787.0,206.0,-1.1208149421600087,3.090619555232947,-9.81303903593306,,,,,,,,,,
acc,1778672787.0,206.0,-1.1154929786975836,3.093629719078952,-9.809094009248168,,,,,,,,,,
acc,1778672787.0,206.0,-1.109509444015964,3.094518225609106,-9.807314629466413,,,,,,,,,,
acc,1778672787.0,206.0,-1.1025508824903651,3.0957536290186813,-9.805906390014416,,,,,,,,,,
acc,1778672787.0,206.0,-1.094945621737566,3.0990721096897484,-9.80376551134709,,,,,,,,,,
acc,1778672787.0,206.0,-1.089148803718402,3.104099767551723,-9.804057867182165,,,,,,,,,,
acc,1778672787.0,206.0,-1.0830497004094262,3.1111760328495652,-9.80122386274943,,,,,,,,,,
acc,1778672787.0,206.0,-1.0766865439914808,3.1192174042849166,-9.798770573078755,,,,,,,,,,
acc,1778672787.0,206.0,-1.0689613451840245,3.1282505970781727,-9.7959846150157,,,,,,,,,,
acc,1778672787.0,206.0,-1.0599219845008911,3.1361368095968896,-9.797093103921316,,,,,,,,,,
acc,1778672787.0,206.0,-1.0527040984149387,3.1456906916981313,-9.7912341800214,,,,,,,,,,
acc,1778672787.0,206.0,-1.0466166966614678,3.1555127181304505,-9.792350333336959,,,,,,,,,,
acc,1778672787.0,206.0,-1.0402296501926003,3.161766825092393,-9.79143303827823,,,,,,,,,,
acc,1778672787.0,206.0,-1.03425560546809,3.1662247674413146,-9.789778651812012,,,,,,,,,,
acc,1778672787.0,206.0,-1.0297202186189969,3.168902867172423,-9.79126300257347,,,,,,,,,,
acc,1778672787.0,206.0,-1.0241611510472381,3.1704917271477426,-9.790355588239139,,,,,,,,,,
acc,1778672787.0,206.0,-1.0158838576715659,3.1679130452960016,-9.79041483103164,,,,,,,,,,
acc,1778672787.0,206.0,-1.0073268194272582,3.17022083255311,-9.78951512414892,,,,,,,,,,
acc,1778672787.0,206.0,-0.9995574728020264,3.173537048677232,-9.790291936988442,,,,,,,,,,
acc,1778672787.0,206.0,-0.9928881273472012,3.174409358932835,-9.79216208867733,,,,,,,,,,
acc,1778672787.0,206.0,-0.9856049488788492,3.176658113293263,-9.793624780819734,,,,,,,,,,
acc,1778672787.0,206.0,-0.9794173627910406,3.1781765002790396,-9.794399743003037,,,,,,,,,,
acc,1778672787.0,206.0,-0.9743154041977906,3.1786516894255312,-9.797652431761112,,,,,,,,,,
acc,1778672787.0,206.0,-0.9685853695307478,3.1815718257786028,-9.799420203260405,,,,,,,,,,
acc,1778672787.0,206.0,-0.9621974718437738,3.1844654264504784,-9.803940643505975,,,,,,,,,,
acc,1778672787.0,206.0,-0.9562225927234181,3.1904564361644945,-9.803556969616832,,,,,,,,,,
acc,1778672787.0,206.0,-0.9506569699259473,3.197102937382247,-9.80598100931441,,,,,,,,,,
acc,1778672787.0,206.0,-0.9430476191670137,3.202979108294015,-9.80841852487648,,,,,,,,,,
acc,1778672787.0,206.0,-0.9347974829922953,3.2105412143131535,-9.808668598136803,,,,,,,,,,
acc,1778672787.0,206.0,-0.9276872204358669,3.216295269751763,-9.805792695357047,,,,,,,,,,
acc,1778672787.0,206.0,-0.9202865989538933,3.2181634010721734,-9.804398285929977,,,,,,,,,,
acc,1778672787.0,206.0,-0.9133081987991278,3.2200145564260008,-9.803336015106954,,,,,,,,,,
acc,1778672787.0,206.0,-0.9056832796935476,3.2235882227578787,-9.800899026376971,,,,,,,,,,
acc,1778672787.0,206.0,-0.8963883075091428,3.227129414691642,-9.797738755905206,,,,,,,,,,
acc,1778672787.0,206.0,-0.8865033708300476,3.235181996184655,-9.794287735832896,,,,,,,,,,
acc,1778672787.0,206.0,-0.8777376599794976,3.2379079012685628,-9.793707806191517,,,,,,,,,,
acc,1778672787.0,206.0,-0.8680222043030273,3.2385502355823452,-9.789618977640245,,,,,,,,,,
acc,1778672787.0,206.0,-0.8590694634972857,3.2395062003293025,-9.786561210524813,,,,,,,,,,
acc,1778672787.0,206.0,-0.8505530483407955,3.240453478092951,-9.78736486598421,,,,,,,,,,
acc,1778672787.0,206.0,-0.8417590521610905,3.2413921478131047,-9.784682553152432,,,,,,,,,,
acc,1778672787.0,206.0,-0.8341098717304184,3.242002820298697,-9.784438376735432,,,,,,,,,,
acc,1778672787.0,206.0,-0.827204638729887,3.242927410932855,-9.784941855264277,,,,,,,,,,
acc,1778672787.0,206.0,-0.8207171163060627,3.2455829323662515,-9.78409188206611,,,,,,,,,,
acc,1778672787.0,206.0,-0.8135786142578884,3.2517284915210487,-9.78459850923973,,,,,,,,,,
