sensor,time,t,ax,ay,az,wx,wy,wz,lat,lon,alt,v_kmh,satellites,x,y
acc,1778672674.0,93.0,-0.074219,0.164062,-9.800781,,,,,,,,,,
acc,1778672674.0,93.0,-0.074219,0.1530739534426398,-9.799560175393871,,,,,,,,,,
acc,1778672674.0,93.0,-0.074219,0.14731779294402103,-9.798920638390014,,,,,,,,,,
acc,1778672674.0,93.0,-0.074219,0.1437751255881064,-9.798527031077118,,,,,,,,,,
acc,1778672674.0,93.0,-0.08052450371926326,0.1413749073018436,-9.798890873415614,,,,,,,,,,
acc,1778672674.0,93.0,-0.08507926193925668,0.1445295249712385,-9.798610568222667,,,,,,,,,,
acc,1778672674.0,93.0,-0.08852379040455999,0.14691519943177994,-9.79839858787828,,,,,,,,,,
acc,1778672674.0,93.0,-0.0912201198235902,0.14878267252627808,-9.798232652585659,,,,,,,,,,
acc,1778672674.0,93.0,-0.09338830807890362,0.1502843559637792,-9.798099219723168,,,,,,,,,,
acc,1778672674.0,93.0,-0.09516982092675169,0.15151822868251238,-9.80183772141458,,,,,,,,,,
acc,1778672674.0,93.0,-0.09665974187272698,0.15255014535408096,-9.804964317994184,,,,,,,,,,
acc,1778672674.0,93.0,-0.09792434120003177,0.15342600466206993,-9.804348856395821,,,,,,,,,,
acc,1778672674.0,93.0,-0.09901122146712689,0.15169058098928903,-9.804096338399363,,,,,,,,,,
acc,1778672674.0,93.0,-0.09737071063041146,0.15250920254684205,-9.80620331340296,,,,,,,,,,
acc,1778672674.0,93.0,-0.09835932695193322,0.15322705775714754,-9.805623680772264,,,,,,,,,,
acc,1778672674.0,93.0,-0.09694529142258773,0.15180243580201216,-9.805111221041644,,,,,,,,,,
acc,1778672674.0,93.0,-0.09785043291928151,0.1524817231579536,-9.804654862175703,,,,,,,,,,
acc,1778672674.0,93.0,-0.09866168920433821,0.15309055187576176,-9.804245838835607,,,,,,,,,,
acc,1778672674.0,93.0,-0.10134708277088028,0.15363938548168882,-9.80387712141462,,,,,,,,,,
acc,1778672674.0,93.0,-0.10191652415918802,0.15413671322137026,-9.80354300666731,,,,,,,,,,
acc,1778672674.0,93.0,-0.10065299125452934,0.15458949471768363,-9.803417006730024,,,,,,,,,,
acc,1778672674.0,93.0,-0.09949769626237835,0.15346700010298212,-9.803131088968266,,,,,,,,,,
acc,1778672674.0,93.0,-0.09843722301817326,0.1524366351193696,-9.802868638132379,,,,,,,,,,
acc,1778672674.0,93.0,-0.097460284977593,0.15290559030154754,-9.802784424971696,,,,,,,,,,
acc,1778672674.0,93.0,-0.09655731880011668,0.15197316258352425,-9.802554833067337,,,,,,,,,,
acc,1778672674.0,93.0,-0.09718405576239512,0.15242620406101504,-9.803952282524184,,,,,,,,,,
acc,1778672674.0,93.0,-0.0963527273412439,0.1528474165312514,-9.802282017552082,,,,,,,,,,
acc,1778672674.0,93.0,-0.09557776624208304,0.15324006914676355,-9.80222946290577,,,,,,,,,,
acc,1778672674.0,93.0,-0.09485357493748413,0.1524149970858655,-9.803504823119997,,,,,,,,,,
acc,1778672674.0,93.0,-0.09417527359005913,0.15164220751068574,-9.803286887060295,,,,,,,,,,
acc,1778672674.0,93.0,-0.0935385886094603,0.15091683151438537,-9.803082322206533,,,,,,,,,,
acc,1778672674.0,93.0,-0.09293976134966554,0.150234586866841,-9.80288992091773,,,,,,,,,,
acc,1778672674.0,93.0,-0.09237547282426942,0.14959169224268148,-9.802708616814138,,,,,,,,,,
acc,1778672674.0,93.0,-0.09184278125438149,0.1489847960695303,-9.802537464711584,,,,,,,,,,
acc,1778672674.0,93.0,-0.0913390699676892,0.1484109171693425,-9.802375623881597,,,,,,,,,,
acc,1778672674.0,93.0,-0.09086200370088598,0.14786739497370627,-9.802222344011524,,,,,,,,,,
acc,1778672674.0,93.0,-0.09040949176558111,0.147351847558718,-9.802076953369854,,,,,,,,,,
acc,1778672674.0,93.0,-0.09101669832274732,0.14686213610307877,-9.802042547620312,,,,,,,,,,
acc,1778672674.0,93.0,-0.09058094799058311,0.14639633465094135,-9.801908495886035,,,,,,,,,,
acc,1778672674.0,93.0,-0.09016593837353185,0.14595270427821536,-9.80178082470646,,,,,,,,,,
acc,1778672674.0,93.0,-0.08977019696841652,0.1455296709318996,-9.802725405673728,,,,,,,,,,
acc,1778672674.0,93.0,-0.0893923876548305,0.14512580634727526,-9.803627185174829,,,,,,,,,,
acc,1778672674.0,93.0,-0.08903129526675213,0.14473981155551616,-9.80448906364596,,,,,,,,,,
acc,1778672674.0,93.0,-0.08868581221216724,0.1443705025805459,-9.804311472670433,,,,,,,,,,
acc,1778672674.0,93.0,-0.08835492683039516,0.1440167979934375,-9.80414138543473,,,,,,,,,,
acc,1778672674.0,93.0,-0.08891427391272355,0.14367770804887336,-9.804065977576636,,,,,,,,,,
acc,1778672674.0,93.0,-0.08859057468590825,0.14412672176463975,-9.803993617938566,,,,,,,,,,
acc,1778672674.0,93.0,-0.0891246893338414,0.14455797088168318,-9.803839624717888,,,,,,,,,,
acc,1778672674.0,93.0,-0.0896381133829421,0.14422530012009466,-9.803774615970939,,,,,,,,,,
acc,1778672674.0,93.0,-0.0893159804402572,0.14390525245555003,-9.80289599869946,,,,,,,,,,
acc,1778672674.0,93.0,-0.08980832283601443,0.14359710466246672,-9.802852547721917,,,,,,,,,,
acc,1778672674.0,93.0,-0.09028272083725272,0.14330018792650318,-9.802810680401377,,,,,,,,,,
acc,1778672674.0,93.0,-0.08996320818009093,0.14301388282454838,-9.802692617778382,,,,,,,,,,
acc,1778672674.0,93.0,-0.0904198294313991,0.14273761485035907,-9.802655183474622,,,,,,,,,,
acc,1778672674.0,93.0,-0.09010737097187094,0.14314888913495394,-9.802619036900532,,,,,,,,,,
acc,1778672674.0,93.0,-0.09054771259161049,0.1435462767474392,-9.802509889623273,,,,,,,,,,
acc,1778672674.0,93.0,-0.09097345596383567,0.1439304901277689,-9.802404360806994,,,,,,,,,,
acc,1778672674.0,93.0,-0.0913853371495134,0.14430219353636534,-9.803095637397423,,,,,,,,,,
acc,1778672674.0,93.0,-0.09178404325732085,0.14466200705651047,-9.802982363543064,,,,,,,,,,
acc,1778672674.0,93.0,-0.09146850330403432,0.14501051020435193,-9.802942818058355,,,,,,,,,,
acc,1778672674.0,93.0,-0.09185518399685512,0.1453482451906826,-9.803596983182045,,,,,,,,,,
acc,1778672674.0,93.0,-0.09154656588084299,0.14567571987306255,-9.803547705888016,,,,,,,,,,
acc,1778672674.0,93.0,-0.09192210810454714,0.14538596133334172,-9.804107367253504,,,,,,,,,,
acc,1778672674.0,93.0,-0.09161999193732266,0.14570468125458863,-9.804050600423665,,,,,,,,,,
acc,1778672674.0,93.0,-0.09198519469533813,0.1460141840910307,-9.803929620409367,,,,,,,,,,
acc,1778672674.0,93.0,-0.09234000320749694,0.14631487798913728,-9.803812083676874,,,,,,,,,,
acc,1778672674.0,93.0,-0.09268487078991518,0.14660714712624726,-9.803697840057032,,,,,,,,,,
acc,1778672674.0,93.0,-0.09302022452036834,0.14689135344317297,-9.804286385091624,,,,,,,,,,
acc,1778672674.0,93.0,-0.0933464671079719,0.14716783822872112,-9.804858940091227,,,,,,,,,,
acc,1778672674.0,93.0,-0.09304181032195225,0.14687696893012725,-9.8047317741934,,,,,,,,,,
acc,1778672674.0,93.0,-0.09274518670803872,0.1465937692559869,-9.80460796139844,,,,,,,,,,
acc,1778672674.0,93.0,-0.09245627068351221,0.14631792835808835,-9.80448736580582,,,,,,,,,,
acc,1778672674.0,93.0,-0.09217475424479363,0.146591831616075,-9.8044301531384,,,,,,,,,,
acc,1778672674.0,93.0,-0.09190034579784336,0.1463215482561767,-9.804314691665107,,,,,,,,,,
acc,1778672674.0,93.0,-0.09163276908065403,0.146590019440064,-9.804261215327609,,,,,,,,,,
acc,1778672674.0,93.0,-0.09195724437708944,0.14632496187155586,-9.804209051993602,,,,,,,,,,
acc,1778672674.0,93.0,-0.09227386123534613,0.14606632370858894,-9.803520144791026,,,,,,,,,,
acc,1778672674.0,93.0,-0.09258291295622628,0.1458138653594337,-9.803479847184537,,,,,,,,,,
acc,1778672674.0,93.0,-0.09231517853234397,0.1460799118075172,-9.803440499671956,,,,,,,,,,
acc,1778672674.0,93.0,-0.09205367386230796,0.14583173465053206,-9.80396656020592,,,,,,,,,,
acc,1778672674.0,93.0,-0.09179817538192411,0.14558925757940766,-9.804480538281338,,,,,,,,,,
acc,1778672674.0,93.0,-0.09154847029536359,0.14535227864339562,-9.804372504681716,,,,,,,,,,
acc,1778672674.0,93.0,-0.09185460905775371,0.1456158361315767,-9.804872179584935,,,,,,,,,,
acc,1778672674.0,93.0,-0.09215397881248177,0.145873566122962,-9.804760442909481,,,,,,,,,,
acc,1778672674.0,93.0,-0.09244681050495358,0.14612566744043365,-9.80465114649838,,,,,,,,,,
acc,1778672674.0,93.0,-0.09219613974102939,0.14637232976904865,-9.804597923837381,,,,,,,,,,
acc,1778672674.0,93.0,-0.0924838770530048,0.1466137341748388,-9.804492531943943,,,,,,,,,,
acc,1778672674.0,93.0,-0.09276555340722363,0.14637390052012814,-9.804442262933696,,,,,,,,,,
acc,1778672674.0,93.0,-0.09304136576723875,0.14613905977000466,-9.804393040433673,,,,,,,,,,
acc,1778672674.0,93.0,-0.0927901452544866,0.14590905158903283,-9.804866201371567,,,,,,,,,,
acc,1778672674.0,93.0,-0.09254403548042381,0.14568372261079204,-9.80476029983792,,,,,,,,,,
acc,1778672674.0,93.0,-0.09230287613709219,0.1449488661434731,-9.805222004924481,,,,,,,,,,
acc,1778672674.0,93.0,-0.09257706733863617,0.14473918043597922,-9.805623473409051,,,,,,,,,,
acc,1778672674.0,93.0,-0.09233872638542939,0.1445336198370449,-9.806067755085138,,,,,,,,,,
acc,1778672674.0,93.0,-0.09260883373421491,0.14478549119967582,-9.80594918960606,,,,,,,,,,
acc,1778672674.0,93.0,-0.09287374122227574,0.1450325137641822,-9.805382393254176,,,,,,,,,,
acc,1778672674.0,93.0,-0.09313360290368976,0.1448271621768989,-9.805323800093728,,,,,,,,,,
acc,1778672674.0,93.0,-0.09338856661117086,0.14462568113611604,-9.805266311319931,,,,,,,,,,
acc,1778672674.0,93.0,-0.09314745119615322,0.14442795848969633,-9.805160765140798,,,,,,,,,,
acc,1778672674.0,93.0,-0.09291078765103367,0.14423388652441496,-9.805594411678115,,,,,,,,,,
acc,1778672674.0,93.0,-0.0926784497709982,0.14404336174813387,-9.805486029876317,,,,,,,,,,
acc,1778672674.0,93.0,-0.09293306908058145,0.14429076470523536,-9.805379609338202,,,,,,,,,,
acc,1778672674.0,93.0,-0.09318312610456403,0.14453373467981642,-9.805275095650314,,,,,,,,,,
acc,1778672674.0,93.0,-0.09342874607674402,0.14477239335633227,-9.805172436470011,,,,,,,,,,
acc,1778672674.0,93.0,-0.09367004951045002,0.1450068578325549,-9.80507158142761,,,,,,,,,,
acc,1778672674.0,93.0,-0.09390715241953343,0.14523724083430214,-9.804972482034032,,,,,,,,,,
acc,1778672674.0,93.0,-0.09414016652709906,0.14546365091825242,-9.80487509159355,,,,,,,,,,
acc,1778672674.0,93.0,-0.09390179638203977,0.14526552749782642,-9.804779365121355,,,,,,,,,,
acc,1778672674.0,93.0,-0.09366746176201822,0.1454893099399169,-9.805150325970766,,,,,,,,,,
acc,1778672674.0,93.0,-0.09343705859847765,0.14570933796052155,-9.805098563186721,,,,,,,,,,
acc,1778672674.0,93.0,-0.09321048653169271,0.1459257074001287,-9.805047661103679,,,,,,,,,,
acc,1778672674.0,93.0,-0.09298764874618708,0.14613851071457665,-9.805410114811643,,,,,,,,,,
acc,1778672674.0,93.0,-0.09276845181480589,0.14634783712395955,-9.805356051901978,,,,,,,,,,
acc,1778672674.0,93.0,-0.09300692001446642,0.1470078988427983,-9.805257455610574,,,,,,,,,,
acc,1778672674.0,93.0,-0.09324155808062762,0.1472052711190495,-9.805160442913794,,,,,,,,,,
acc,1778672674.0,93.0,-0.09302237399238572,0.1473994998203026,-9.805109981551132,,,,,,,,,,
acc,1778672674.0,93.0,-0.09280665206144653,0.14759066055105732,-9.80506031725899,,,,,,,,,,
acc,1778672674.0,93.0,-0.09259430982591077,0.1477788263844447,-9.805011431052687,,,,,,,,,,
acc,1778672674.0,93.0,-0.09238526756096443,0.14756412424278176,-9.805407695342957,,,,,,,,,,
acc,1778672674.0,93.0,-0.09217944816527952,0.14775104116487597,-9.805753596273542,,,,,,,,,,
acc,1778672674.0,93.0,-0.09197677705300124,0.1475383880384802,-9.80613828266765,,,,,,,,,,
acc,1778672674.0,93.0,-0.0922162336251248,0.14772411119248818,-9.806034164628718,,,,,,,,,,
acc,1778672674.0,93.0,-0.09245208355971157,0.1475134157489779,-9.80597534800042,,,,,,,,,,
acc,1778672674.0,93.0,-0.09268440800084236,0.14769799763054844,-9.80587384328368,,,,,,,,,,
acc,1778672674.0,93.0,-0.09291328553332502,0.14787984094152015,-9.8057738445535,,,,,,,,,,
acc,1778672674.0,93.0,-0.09313879228401314,0.14805900616471526,-9.805675318549346,,,,,,,,,,
acc,1778672674.0,93.0,-0.09293006829124938,0.14784770934601255,-9.8055782330424,,,,,,,,,,
acc,1778672674.0,93.0,-0.09272437406427363,0.14763947963935548,-9.805482556795326,,,,,,,,,,
acc,1778672675.0,94.0,-0.09252164449509173,0.14743425113419945,-9.805388259523909,,,,,,,,,,
acc,1778672675.0,94.0,-0.09232181644611069,0.14680548147593714,-9.805295311860439,,,,,,,,,,
acc,1778672675.0,94.0,-0.09254988608734838,0.14661070631649156,-9.805628753612718,,,,,,,,,,
acc,1778672675.0,94.0,-0.0923510689956955,0.14641868078092063,-9.80599985273714,,,,,,,,,,
acc,1778672675.0,94.0,-0.09257734646651142,0.14660942606569344,-9.805901202216099,,,,,,,,,,
acc,1778672675.0,94.0,-0.09280047206579548,0.14679751441501993,-9.805803925821115,,,,,,,,,,
acc,1778672675.0,94.0,-0.09260083712296235,0.14660529221406657,-9.805707995553075,,,,,,,,,,
acc,1778672675.0,94.0,-0.09282234496374515,0.14641571285605895,-9.805655221880402,,,,,,,,,,
acc,1778672675.0,94.0,-0.09304082670159718,0.14622872341382523,-9.80560316916896,,,,,,,,,,
acc,1778672675.0,94.0,-0.0928404134202336,0.1460442724624612,-9.805967762753433,,,,,,,,,,
acc,1778672675.0,94.0,-0.09264270400829178,0.14586231002525063,-9.806327437435138,,,,,,,,,,
acc,1778672675.0,94.0,-0.09286120901061501,0.1460549966357059,-9.80668228923996,,,,,,,,,,
acc,1778672675.0,94.0,-0.0926643840341658,0.14587393703826074,-9.806578743599388,,,,,,,,,,
acc,1778672675.0,94.0,-0.09288146289239985,0.14606544489521295,-9.806476569819528,,,,,,,,,,
acc,1778672675.0,94.0,-0.0930956825818479,0.14625443038176333,-9.806375741781416,,,,,,,,,,
acc,1778672675.0,94.0,-0.09330709709188104,0.1460727285123785,-9.806317144258871,,,,,,,,,,
acc,1778672675.0,94.0,-0.09351575896070917,0.146260657482732,-9.806667390097507,,,,,,,,,,
acc,1778672675.0,94.0,-0.09372171932518544,0.14607981619810517,-9.806158300735474,,,,,,,,,,
acc,1778672675.0,94.0,-0.09392502796858243,0.14590130322867467,-9.806102406465339,,,,,,,,,,
acc,1778672675.0,94.0,-0.09372069278060473,0.14572507601101792,-9.806006725903146,,,,,,,,,,
acc,1778672675.0,94.0,-0.09351895985266434,0.14555109309132344,-9.806356751537017,,,,,,,,,,
acc,1778672675.0,94.0,-0.09331978236271649,0.14574212747703588,-9.806299209231012,,,,,,,,,,
acc,1778672675.0,94.0,-0.09352530934704334,0.14593075465506256,-9.806202174604262,,,,,,,,,,
acc,1778672675.0,94.0,-0.09372825991285591,0.14611701726497495,-9.8061063563716,,,,,,,,,,
acc,1778672675.0,94.0,-0.09352828616124485,0.14630095686781727,-9.806051770421284,,,,,,,,,,
acc,1778672675.0,94.0,-0.09373031376466291,0.14612304402625773,-9.805997861822949,,,,,,,,,,
acc,1778672675.0,94.0,-0.09353118249693224,0.14630612790712308,-9.805944618852182,,,,,,,,,,
acc,1778672675.0,94.0,-0.09333449794296098,0.14648696224749413,-9.805892030074556,,,,,,,,,,
acc,1778672675.0,94.0,-0.09314021838730181,0.14666558540109642,-9.806197401020366,,,,,,,,,,
acc,1778672675.0,94.0,-0.09294830313103492,0.14684203478704688,-9.806142463226795,,,,,,,,,,
acc,1778672675.0,94.0,-0.09236329035864767,0.1470163469193528,-9.806048651697203,,,,,,,,,,
acc,1778672675.0,94.0,-0.09217998042095144,0.14718855743530257,-9.805995433142753,,,,,,,,,,
acc,1778672675.0,94.0,-0.09199887052425458,0.1473587011227957,-9.805942853304366,,,,,,,,,,
acc,1778672675.0,94.0,-0.09181992451460855,0.14752681194665818,-9.806244740306445,,,,,,,,,,
acc,1778672675.0,94.0,-0.0916431070872105,0.14769292307398607,-9.80618985202463,,,,,,,,,,
acc,1778672675.0,94.0,-0.0914683837604165,0.14785706689855885,-9.806135613800821,,,,,,,,,,
acc,1778672675.0,94.0,-0.09168672372204627,0.14766737047819245,-9.806082015178859,,,,,,,,,,
acc,1778672675.0,94.0,-0.09151218130911608,0.14783119023177724,-9.806029045942854,,,,,,,,,,
acc,1778672675.0,94.0,-0.09133967993210677,0.1476424093870738,-9.805937733332286,,,,,,,,,,
acc,1778672675.0,94.0,-0.09116918744086798,0.14745582701266227,-9.805847484113833,,,,,,,,,,
acc,1778672675.0,94.0,-0.09100067240811484,0.14727140871537153,-9.806185469992045,,,,,,,,,,
acc,1778672675.0,94.0,-0.09083410410809434,0.14708912086976791,-9.806519551362975,,,,,,,,,,
acc,1778672675.0,94.0,-0.09066945249600467,0.14690893059563234,-9.806423976221256,,,,,,,,,,
acc,1778672675.0,94.0,-0.09089317600027884,0.14707864674599866,-9.806329496600961,,,,,,,,,,
acc,1778672675.0,94.0,-0.09111434486522293,0.14689911953272897,-9.806274683114157,,,,,,,,,,
acc,1778672675.0,94.0,-0.0913329977401948,0.14672163459909227,-9.806220493178879,,,,,,,,,,
acc,1778672675.0,94.0,-0.09116443509301135,0.14654616124827938,-9.806128445657698,,,,,,,,,,
acc,1778672675.0,94.0,-0.091381952540106,0.1463726694398905,-9.80607585328032,,,,,,,,,,
acc,1778672675.0,94.0,-0.09159702246832176,0.14620112977135077,-9.806369128582048,,,,,,,,,,
acc,1778672675.0,94.0,-0.09180968096431857,0.14603151345995807,-9.806314324844221,,,,,,,,,,
acc,1778672675.0,94.0,-0.09163740414625653,0.1458637923255378,-9.8062218794834,,,,,,,,,,
acc,1778672675.0,94.0,-0.09184908660930195,0.14569793877368165,-9.80616866564694,,,,,,,,,,
acc,1778672675.0,94.0,-0.09205841992885559,0.1455339257795473,-9.806116042350364,,,,,,,,,,
acc,1778672675.0,94.0,-0.0922654378903445,0.1453717268721981,-9.80606400110052,,,,,,,,,,
acc,1778672675.0,94.0,-0.09247017359155954,0.1452113161194614,-9.80601253357711,,,,,,,,,,
acc,1778672675.0,94.0,-0.09267265946134358,0.1450526681132864,-9.805961631628007,,,,,,,,,,
acc,1778672675.0,94.0,-0.09287292727766651,0.14489575795558238,-9.805911287264696,,,,,,,,,,
acc,1778672675.0,94.0,-0.09307100818511022,0.14474056124451906,-9.805861492657892,,,,,,,,,,
acc,1778672675.0,94.0,-0.09326693271178559,0.14458705406127226,-9.806153067514478,,,,,,,,,,
acc,1778672675.0,94.0,-0.09346073078570265,0.14443521295719774,-9.80644147778433,,,,,,,,,,
acc,1778672675.0,94.0,-0.09327462542465498,0.14428501494141774,-9.806348951138894,,,,,,,,,,
acc,1778672675.0,94.0,-0.09346790806218909,0.14447608143475962,-9.806257422798408,,,,,,,,,,
acc,1778672675.0,94.0,-0.09365911131865919,0.1446650923888493,-9.805827611464375,,,,,,,,,,
acc,1778672675.0,94.0,-0.09384826340792848,0.14451317708147254,-9.805778962880249,,,,,,,,,,
acc,1778672675.0,94.0,-0.09403539200796879,0.1447014235411437,-9.80569322168262,,,,,,,,,,
acc,1778672675.0,94.0,-0.09422052427460678,0.14488766174181422,-9.805608395192936,,,,,,,,,,
acc,1778672675.0,94.0,-0.09402831864199133,0.14507191848966497,-9.805562006101074,,,,,,,,,,
acc,1778672675.0,94.0,-0.09383815250039738,0.14525422009198863,-9.805853610555586,,,,,,,,,,
acc,1778672675.0,94.0,-0.09364999891491842,0.14509743573412992,-9.806179588634693,,,,,,,,,,
acc,1778672675.0,94.0,-0.09346383144522113,0.14527913431580078,-9.806127865015622,,,,,,,,,,
acc,1778672675.0,94.0,-0.09327962413321884,0.14545891979270842,-9.806413201099314,,,,,,,,,,
acc,1778672675.0,94.0,-0.093097351491121,0.1456368170408175,-9.806359341573623,,,,,,,,,,
acc,1778672675.0,94.0,-0.09291698848984575,0.14618605679945085,-9.806306046325421,,,,,,,,,,
acc,1778672675.0,94.0,-0.09273851054778276,0.14672955619304576,-9.806253308091119,,,,,,,,,,
acc,1778672675.0,94.0,-0.09293442033833152,0.14689485239260408,-9.806163868961645,,,,,,,,,,
acc,1778672675.0,94.0,-0.09275609089248567,0.14705842915787237,-9.80611257842039,,,,,,,,,,
acc,1778672675.0,94.0,-0.0925796121769094,0.14722030829844698,-9.806061820180217,,,,,,,,,,
acc,1778672675.0,94.0,-0.09240496082907114,0.1473805112441446,-9.806011587521672,,,,,,,,,,
acc,1778672675.0,94.0,-0.09223211389061567,0.147539059054042,-9.806296020597518,,,,,,,,,,
acc,1778672675.0,94.0,-0.09206104879779903,0.14736210652957046,-9.8062065520152,,,,,,,,,,
acc,1778672675.0,94.0,-0.09189174337220353,0.14718697423359725,-9.806525741953056,,,,,,,,,,
acc,1778672675.0,94.0,-0.09209454977741854,0.14734697807913283,-9.806434236562419,,,,,,,,,,
acc,1778672675.0,94.0,-0.09229527879299787,0.14717226077929,-9.806380675508155,,,,,,,,,,
acc,1778672675.0,94.0,-0.09249395592652718,0.1473321602147837,-9.806290682872515,,,,,,,,,,
acc,1778672675.0,94.0,-0.09269060626101602,0.14715784439783663,-9.806238559974426,,,,,,,,,,
acc,1778672675.0,94.0,-0.09251598769754109,0.14698530332022366,-9.806150042962498,,,,,,,,,,
acc,1778672675.0,94.0,-0.09234314347617682,0.14681451547487728,-9.806468336108075,,,,,,,,,,
acc,1778672675.0,94.0,-0.09217205218640091,0.14664545970600212,-9.806377775345844,,,,,,,,,,
acc,1778672675.0,94.0,-0.092002692765206,0.14647811520118337,-9.80628813128334,,,,,,,,,,
acc,1778672675.0,94.0,-0.09220328504760829,0.1463124614837167,-9.806236215121897,,,,,,,,,,
acc,1778672675.0,94.0,-0.092033858399313,0.14647967662802971,-9.80578001947983,,,,,,,,,,
acc,1778672675.0,94.0,-0.0922338932541874,0.14664520842379622,-9.805365199462958,,,,,,,,,,
acc,1778672675.0,94.0,-0.09243191793288898,0.14680907676910104,-9.805285318221271,,,,,,,,,,
acc,1778672675.0,94.0,-0.0926279561025745,0.14697130124886584,-9.805610263976718,,,,,,,,,,
acc,1778672675.0,94.0,-0.09282203106017352,0.1468015430964453,-9.80556488377968,,,,,,,,,,
acc,1778672675.0,94.0,-0.09301416574037434,0.14696363984614166,-9.805483275168516,,,,,,,,,,
acc,1778672675.0,94.0,-0.09320438272339246,0.1467941575418035,-9.805439141359336,,,,,,,,,,
acc,1778672675.0,94.0,-0.0930262971392235,0.14662636408554552,-9.805358808498045,,,,,,,,,,
acc,1778672675.0,94.0,-0.09284998329009103,0.14646023997016505,-9.80568209880429,,,,,,,,,,
acc,1778672675.0,94.0,-0.09304141115894161,0.14629576598463154,-9.805636178089113,,,,,,,,,,
acc,1778672675.0,94.0,-0.09323094049763807,0.14613292320788168,-9.805590712803246,,,,,,,,,,
acc,1778672675.0,94.0,-0.09341859299755687,0.14597169300277993,-9.80554569774325,,,,,,,,,,
acc,1778672675.0,94.0,-0.0936043900264595,0.1458120570102393,-9.805501127783316,,,,,,,,,,
acc,1778672675.0,94.0,-0.09378835263515432,0.14565399714349755,-9.80578569135504,,,,,,,,,,
acc,1778672675.0,94.0,-0.09360548693437751,0.14549749558254393,-9.805702425452,,,,,,,,,,
acc,1778672675.0,94.0,-0.09342442153384518,0.14534253476869186,-9.80561997929605,,,,,,,,,,
acc,1778672675.0,94.0,-0.09324513621611763,0.14518909739929323,-9.806304114631677,,,,,,,,,,
acc,1778672675.0,94.0,-0.09306761105690972,0.1450371664225898,-9.80661706169682,,,,,,,,,,
acc,1778672675.0,94.0,-0.09289182641923055,0.14488672503269767,-9.80652620594196,,,,,,,,,,
acc,1778672675.0,94.0,-0.09308188925470937,0.14506547220540353,-9.806436239786155,,,,,,,,,,
acc,1778672675.0,94.0,-0.09327009355301999,0.14524247149160993,-9.806347153368064,,,,,,,,,,
acc,1778672675.0,94.0,-0.09345645985179196,0.14509032607356243,-9.806295314466896,,,,,,,,,,
acc,1778672675.0,94.0,-0.09364100839895201,0.14493966462864058,-9.80657126107187,,,,,,,,,,
acc,1778672675.0,94.0,-0.09382375915834776,0.14479047085879068,-9.806844519530891,,,,,,,,,,
acc,1778672675.0,94.0,-0.09400473181523002,0.14464272869339947,-9.806788122467788,,,,,,,,,,
acc,1778672675.0,94.0,-0.09418394578159767,0.14482327217834512,-9.806695958881999,,,,,,,,,,
acc,1778672675.0,94.0,-0.09399840579576328,0.1446753483879778,-9.806604689885239,,,,,,,,,,
acc,1778672675.0,94.0,-0.09381466467346707,0.1445288587613123,-9.806514305767658,,,,,,,,,,
acc,1778672675.0,94.0,-0.09363270294536215,0.14471023990833315,-9.806461067347701,,,,,,,,,,
acc,1778672675.0,94.0,-0.09381508202934499,0.14488986648203364,-9.806770933829304,,,,,,,,,,
acc,1778672675.0,94.0,-0.09399569882764214,0.14506775736690022,-9.80667911324899,,,,,,,,,,
acc,1778672675.0,94.0,-0.0941745722561054,0.14524393119330203,-9.806986721460277,,,,,,,,,,
acc,1778672675.0,94.0,-0.09398955053703911,0.14541840634216968,-9.806929183984634,,,,,,,,,,
acc,1778672675.0,94.0,-0.0934442629464025,0.14559120094956102,-9.806835998689666,,,,,,,,,,
acc,1778672675.0,94.0,-0.0936280503241758,0.1457623329111173,-9.807141817836735,,,,,,,,,,
acc,1778672675.0,94.0,-0.09344828851666222,0.14560621373879595,-9.807046729117765,,,,,,,,,,
acc,1778672676.0,95.0,-0.09327025293536083,0.14577708780064907,-9.806988717469295,,,,,,,,,,
acc,1778672676.0,95.0,-0.09309392533747321,0.14562093857541267,-9.806895110633402,,,,,,,,,,
acc,1778672676.0,95.0,-0.09328070343659298,0.1457915619300203,-9.80647712495639,,,,,,,,,,
acc,1778672676.0,95.0,-0.09310439516297332,0.14596055151718432,-9.806424439530833,,,,,,,,,,
acc,1778672676.0,95.0,-0.09292977353004402,0.14612792447735687,-9.806372258116692,,,,,,,,,,
acc,1778672676.0,95.0,-0.09275682088427473,0.1462936977312572,-9.80632057543864,,,,,,,,,,
acc,1778672676.0,95.0,-0.09258551979740302,0.14613302450336516,-9.805908428919558,,,,,,,,,,
acc,1778672676.0,95.0,-0.0924158530625449,0.1462986492796113,-9.806185836905971,,,,,,,,,,
acc,1778672676.0,95.0,-0.09260854433892168,0.1464626952234669,-9.806496672694788,,,,,,,,,,
acc,1778672676.0,95.0,-0.0924387650589242,0.14662517871073263,-9.806443903426722,,,,,,,,,,
acc,1778672676.0,95.0,-0.09263113331822719,0.14646163542593144,-9.806391636341264,,,,,,,,,,
acc,1778672676.0,95.0,-0.09246124211116391,0.14629964723902636,-9.8063038250699,,,,,,,,,,
acc,1778672676.0,95.0,-0.09229296506388025,0.1464634975079359,-9.806252879320482,,,,,,,,,,
acc,1778672676.0,95.0,-0.09248651832623572,0.1466257922430208,-9.806166395800611,,,,,,,,,,
acc,1778672676.0,95.0,-0.09267823549229535,0.1467865474082824,-9.806080732685773,,,,,,,,,,
acc,1778672676.0,95.0,-0.09286813536727771,0.14662173876252133,-9.806031883970636,,,,,,,,,,
acc,1778672676.0,95.0,-0.09305623652672464,0.1464584911702972,-9.805587545743421,,,,,,,,,,
acc,1778672676.0,95.0,-0.09324255732024514,0.1462967887065115,-9.805867149543399,,,,,,,,,,
acc,1778672676.0,95.0,-0.09342711587517728,0.14613661563896835,-9.806144108825842,,,,,,,,,,
acc,1778672676.0,95.0,-0.09325024787316714,0.14597795642526548,-9.806058759030522,,,,,,,,,,
acc,1778672676.0,95.0,-0.09343464661799122,0.1458207957097528,-9.806010173129476,,,,,,,,,,
acc,1778672676.0,95.0,-0.09361730495644226,0.14566511832055629,-9.805962045795606,,,,,,,,,,
acc,1778672676.0,95.0,-0.09379824047767038,0.14551090926666604,-9.80623786958591,,,,,,,,,,
acc,1778672676.0,95.0,-0.09361812282456752,0.14535815373508612,-9.806151736617778,,,,,,,,,,
acc,1778672676.0,95.0,-0.09343970179418971,0.14520683708804522,-9.806066414981286,,,,,,,,,,
acc,1778672676.0,95.0,-0.09326296033018719,0.14505694486026618,-9.806377012372089,,,,,,,,,,
acc,1778672676.0,95.0,-0.09308788157645025,0.14490846275629293,-9.806289656567138,,,,,,,,,,
acc,1778672676.0,95.0,-0.0929144488740233,0.1447613766478733,-9.80620312206194,,,,,,,,,,
acc,1778672676.0,95.0,-0.09274264575808322,0.14461567257139654,-9.80651226722832,,,,,,,,,,
acc,1778672676.0,95.0,-0.09293134610952263,0.14479433970201278,-9.806423722854634,,,,,,,,,,
acc,1778672676.0,95.0,-0.09275945681332624,0.14497133004563872,-9.806371889500632,,,,,,,,,,
acc,1778672676.0,95.0,-0.09258917976650874,0.14514666029420412,-9.806320542321712,,,,,,,,,,
acc,1778672676.0,95.0,-0.09277917862832187,0.14532034694788443,-9.806233810353714,,,,,,,,,,
acc,1778672676.0,95.0,-0.09260878529992042,0.14549240631796087,-9.806183750355698,,,,,,,,,,
acc,1778672676.0,95.0,-0.09279853323339957,0.14534016156004112,-9.806134159117896,,,,,,,,,,
acc,1778672676.0,95.0,-0.09262802478022816,0.14551197597931748,-9.80608503200209,,,,,,,,,,
acc,1778672676.0,95.0,-0.0924591112676396,0.1453596064884773,-9.80639479017418,,,,,,,,,,
acc,1778672676.0,95.0,-0.09229177695968431,0.14520866152905684,-9.806701652358063,,,,,,,,,,
acc,1778672676.0,95.0,-0.09212600629756504,0.14505912706614577,-9.806611518413986,,,,,,,,,,
acc,1778672676.0,95.0,-0.09196178389707767,0.14523339949099986,-9.80616398553644,,,,,,,,,,
acc,1778672676.0,95.0,-0.091799094546102,0.1454060450473206,-9.806114627192883,,,,,,,,,,
acc,1778672676.0,95.0,-0.0919960370348786,0.14557707969816988,-9.806029919847967,,,,,,,,,,
acc,1778672676.0,95.0,-0.0921911427796253,0.14574651922916562,-9.80594600250886,,,,,,,,,,
acc,1778672676.0,95.0,-0.09202642942500405,0.14591437925099257,-9.805504857948536,,,,,,,,,,
acc,1778672676.0,95.0,-0.09186325082160565,0.14575852275390883,-9.805425778136737,,,,,,,,,,
acc,1778672676.0,95.0,-0.09170159198748397,0.14560411783142438,-9.805347434837358,,,,,,,,,,
acc,1778672676.0,95.0,-0.09154143810523424,0.14545115033101708,-9.805269820869574,,,,,,,,,,
acc,1778672676.0,95.0,-0.09138277451971151,0.14529960625514368,-9.805192929131188,,,,,,,,,,
acc,1778672676.0,95.0,-0.09122558673579188,0.1451494717591016,-9.805116752597558,,,,,,,,,,
acc,1778672676.0,95.0,-0.0914275442707523,0.14532265044941428,-9.805041284320522,,,,,,,,,,
acc,1778672676.0,95.0,-0.09162762486133051,0.14549421965895193,-9.804966517427362,,,,,,,,,,
acc,1778672676.0,95.0,-0.09218344174677019,0.14566419498793226,-9.804892445119773,,,,,,,,,,
acc,1778672676.0,95.0,-0.0923765497282468,0.14583259186812272,-9.804819060672857,,,,,,,,,,
acc,1778672676.0,95.0,-0.0925678651399737,0.1459994255651083,-9.805139605370325,,,,,,,,,,
acc,1778672676.0,95.0,-0.09275740529964183,0.14616471118051816,-9.805063978255836,,,,,,,,,,
acc,1778672676.0,95.0,-0.09258778688666458,0.14632846365421204,-9.805346462238996,,,,,,,,,,
acc,1778672676.0,95.0,-0.09241974122589393,0.14649069776642723,-9.805626326946925,,,,,,,,,,
acc,1778672676.0,95.0,-0.0922532531707914,0.1466514281398872,-9.805582005177294,,,,,,,,,,
acc,1778672676.0,95.0,-0.0920883077358296,0.14681066924187258,-9.805538094077694,,,,,,,,,,
acc,1778672676.0,95.0,-0.09228211825366672,0.1469684353862555,-9.805458868714142,,,,,,,,,,
acc,1778672676.0,95.0,-0.09247413423273451,0.1471247407354982,-9.805380376917519,,,,,,,,,,
acc,1778672676.0,95.0,-0.09266437288756176,0.1472795993026164,-9.805302611650914,,,,,,,,,,
acc,1778672676.0,95.0,-0.09285285125145724,0.14743302495310862,-9.805225565951497,,,,,,,,,,
acc,1778672676.0,95.0,-0.0926825181046259,0.14758503140685209,-9.80518493790877,,,,,,,,,,
acc,1778672676.0,95.0,-0.09287078990454972,0.14773563223996575,-9.805108984400386,,,,,,,,,,
acc,1778672676.0,95.0,-0.09270032894405657,0.14788484088664158,-9.805069430428265,,,,,,,,,,
acc,1778672676.0,95.0,-0.09288839877289794,0.14803267064094447,-9.804994548267041,,,,,,,,,,
acc,1778672676.0,95.0,-0.09271781177640552,0.14817913465858162,-9.804956048015791,,,,,,,,,,
acc,1778672676.0,95.0,-0.09290568411004133,0.14800304869635567,-9.805239109745157,,,,,,,,,,
acc,1778672676.0,95.0,-0.09309182179154081,0.14814975444458148,-9.805162699837984,,,,,,,,,,
acc,1778672676.0,95.0,-0.09327624132927886,0.14829510602548313,-9.805086995232415,,,,,,,,,,
acc,1778672676.0,95.0,-0.09345895906128691,0.14811801148828058,-9.80504766550613,,,,,,,,,,
acc,1778672676.0,95.0,-0.09328324304253933,0.14794255071104606,-9.804973025625623,,,,,,,,,,
acc,1778672676.0,95.0,-0.09346586334409132,0.1477687081826687,-9.80493474388305,,,,,,,,,,
acc,1778672676.0,95.0,-0.09329011590534399,0.14759646855111544,-9.805253508153438,,,,,,,,,,
acc,1778672676.0,95.0,-0.09347264118213802,0.14742581662148846,-9.805533670618543,,,,,,,,,,
acc,1778672676.0,95.0,-0.09329686236035478,0.147256737354114,-9.805846911590296,,,,,,,,,,
acc,1778672676.0,95.0,-0.09312270303941567,0.14741015040822497,-9.805800665543131,,,,,,,,,,
acc,1778672676.0,95.0,-0.09330671025336612,0.14724124243103845,-9.806075762539676,,,,,,,,,,
acc,1778672676.0,95.0,-0.09348902298881633,0.14707388988708586,-9.805635241315475,,,,,,,,,,
acc,1778672676.0,95.0,-0.09331315241319918,0.1472289342638331,-9.80559093839924,,,,,,,,,,
acc,1778672676.0,95.0,-0.09313890062024721,0.14706172054947064,-9.805511397403627,,,,,,,,,,
acc,1778672676.0,95.0,-0.0933227017345099,0.14689604558161753,-9.805468231480488,,,,,,,,,,
acc,1778672676.0,95.0,-0.09350481184356382,0.14673189485497878,-9.805425462692051,,,,,,,,,,
acc,1778672676.0,95.0,-0.09332885093084663,0.14656925401029328,-9.805347449527158,,,,,,,,,,
acc,1778672676.0,95.0,-0.09351087812724448,0.14640810883261776,-9.805305788952047,,,,,,,,,,
acc,1778672676.0,95.0,-0.09333488731301291,0.1462484452496371,-9.805228878793145,,,,,,,,,,
acc,1778672676.0,95.0,-0.09351683360687611,0.14573392996880863,-9.805188305721355,,,,,,,,,,
acc,1778672676.0,95.0,-0.09405341163133081,0.1455804380029032,-9.805468781753438,,,,,,,,,,
acc,1778672676.0,95.0,-0.09422877961890588,0.14542835639077137,-9.805034121215146,,,,,,,,,,
acc,1778672676.0,95.0,-0.094402536567529,0.14527767189452373,-9.804603453737775,,,,,,,,,,
acc,1778672676.0,95.0,-0.09493093029139373,0.14544897445559068,-9.804532974564342,,,,,,,,,,
acc,1778672676.0,95.0,-0.09545447174906123,0.1452981214702932,-9.804106932771921,,,,,,,,,,
acc,1778672676.0,95.0,-0.09561701902864218,0.1451486535136586,-9.804076605984982,,,,,,,,,,
acc,1778672676.0,95.0,-0.09577807418766565,0.14500055761450387,-9.804367109121738,,,,,,,,,,
acc,1778672676.0,95.0,-0.09593765119279586,0.14485382092998864,-9.804334413984945,,,,,,,,,,
acc,1778672676.0,95.0,-0.09609576387270276,0.14502893455439025,-9.804266409359725,,,,,,,,,,
acc,1778672676.0,95.0,-0.09625242591961826,0.1448819565372792,-9.804234636077089,,,,,,,,,,
acc,1778672676.0,95.0,-0.09676373197102299,0.14505679335456376,-9.803847082289163,,,,,,,,,,
acc,1778672676.0,95.0,-0.09762640040817684,0.14523002664932783,-9.803819134814196,,,,,,,,,,
acc,1778672676.0,95.0,-0.0984811581668122,0.1454016713929817,-9.803791443617865,,,,,,,,,,
acc,1778672676.0,95.0,-0.09964849232757642,0.14557174241002288,-9.80372840686084,,,,,,,,,,
acc,1778672676.0,95.0,-0.10080512549227345,0.14574025437966728,-9.80334555184331,,,,,,,,,,
acc,1778672676.0,95.0,-0.10163077813496414,0.14558684254239948,-9.803286585213483,,,,,,,,,,
acc,1778672676.0,95.0,-0.10276922712989149,0.14543483659750084,-9.803263752802774,,,,,,,,,,
acc,1778672676.0,95.0,-0.10357689821665199,0.14560457000296462,-9.803241129600355,,,,,,,,,,
acc,1778672676.0,95.0,-0.10469750052622014,0.145772748411434,-9.803183123391232,,,,,,,,,,
acc,1778672676.0,95.0,-0.10548752305746029,0.14593938629494224,-9.803161237052368,,,,,,,,,,
acc,1778672676.0,95.0,-0.10659060961025056,0.14646039355496984,-9.802783664705458,,,,,,,,,,
acc,1778672676.0,95.0,-0.1080394735246921,0.1469766297181232,-9.80276541966665,,,,,,,,,,
acc,1778672676.0,95.0,-0.10947507138694954,0.14748813913240008,-9.802355895806064,,,,,,,,,,
acc,1778672676.0,95.0,-0.11089752645709006,0.1476391194923165,-9.801950121106096,,,,,,,,,,
acc,1778672676.0,95.0,-0.1123069608015667,0.14778871782345157,-9.801548060745624,,,,,,,,,,
acc,1778672676.0,95.0,-0.11405931010538452,0.14793694695669526,-9.801541073786986,,,,,,,,,,
acc,1778672676.0,95.0,-0.11579562311472952,0.1480838195989557,-9.801534150768184,,,,,,,,,,
acc,1778672676.0,95.0,-0.11787182399582073,0.14822934833448675,-9.801491715377988,,,,,,,,,,
acc,1778672676.0,95.0,-0.119929029694816,0.1483735456261981,-9.801129481813916,,,,,,,,,,
acc,1778672676.0,95.0,-0.12196741630239022,0.14851642381694802,-9.800770561922638,,,,,,,,,,
acc,1778672676.0,95.0,-0.12434289019897912,0.1486579951308193,-9.800414924996415,,,,,,,,,,
acc,1778672676.0,95.0,-0.12701679585736986,0.14879827167437834,-9.800062540622713,,,,,,,,,,
acc,1778672676.0,95.0,-0.12966624958199607,0.1489372654379182,-9.800033514407222,,,,,,,,,,
acc,1778672676.0,95.0,-0.13229147773492497,0.14875486467382498,-9.799649053599545,,,,,,,,,,
acc,1778672676.0,95.0,-0.1348927045083253,0.14889424326377776,-9.799623794550682,,,,,,,,,,
acc,1778672676.0,95.0,-0.1378258166689676,0.14903234771256668,-9.799278666338981,,,,,,,,,,
acc,1778672676.0,95.0,-0.14108777952359175,0.14884910119029043,-9.799292344797816,,,,,,,,,,
acc,1778672676.0,95.0,-0.14467556873184545,0.14866752947374062,-9.799305898240576,,,,,,,,,,
acc,1778672676.0,95.0,-0.14858620660083158,0.14880768340237885,-9.79892813059712,,,,,,,,,,
acc,1778672677.0,96.0,-0.15246111004275956,0.14894655663960366,-9.798944998869816,,,,,,,,,,
acc,1778672677.0,96.0,-0.15665621247734568,0.14876411618991503,-9.798961713019919,,,,,,,,,,
acc,1778672677.0,96.0,-0.16081298873413494,0.14858334250408287,-9.79858711629471,,,,,,,,,,
acc,1778672677.0,96.0,-0.16493179262915725,0.1484042201950322,-9.7986070871579,,,,,,,,,,
acc,1778672677.0,96.0,-0.1693329977393875,0.148226734022043,-9.798591320512644,,,,,,,,,,
acc,1778672677.0,96.0,-0.17369400518101163,0.147695310771751,-9.798966819080562,,,,,,,,,,
acc,1778672677.0,96.0,-0.17801518573828845,0.14752428806208517,-9.798947779075762,,,,,,,,,,
acc,1778672677.0,96.0,-0.18265244339469627,0.1469992903586162,-9.798964464789504,,,,,,,,,,
acc,1778672677.0,96.0,-0.1876028851642463,0.1468346126484121,-9.799300982747042,,,,,,,,,,
acc,1778672677.0,96.0,-0.19286365420132723,0.14667143845857097,-9.79927890308159,,,,,,,,,,
acc,1778672677.0,96.0,-0.19807639609388006,0.14650975393503976,-9.79925702498805,,,,,,,,,,
acc,1778672677.0,96.0,-0.2035970585702599,0.14634954535484312,-9.799235346609521,,,,,,,,,,
acc,1778672677.0,96.0,-0.20938726929316895,0.145835312604455,-9.799249412938572,,,,,,,,,,
acc,1778672677.0,96.0,-0.21480470131614166,0.14532577328379687,-9.799227805001566,,,,,,,,,,
acc,1778672677.0,96.0,-0.2204926148036587,0.14482088418764438,-9.799241939214886,,,,,,,,,,
acc,1778672677.0,96.0,-0.22612862254392904,0.144320602518428,-9.799575868043602,,,,,,,,,,
acc,1778672677.0,96.0,-0.231713202134037,0.14382488588212028,-9.79990674979667,,,,,,,,,,
acc,1778672677.0,96.0,-0.23760226737917256,0.14333369228417195,-9.800234612504676,,,,,,,,,,
acc,1778672677.0,96.0,-0.24379304446134958,0.14284698012549546,-9.80055948393425,,,,,,,,,,
acc,1778672677.0,96.0,-0.24992734363556093,0.14236470819849564,-9.800561499499784,,,,,,,,,,
acc,1778672677.0,96.0,-0.2567165235452982,0.1422422508486089,-9.800883381246207,,,,,,,,,,
acc,1778672677.0,96.0,-0.26308835902522293,0.1421209105091138,-9.801202326907077,,,,,,,,,,
acc,1778672677.0,96.0,-0.26940207696892654,0.14164527801669463,-9.801518363463334,,,,,,,,,,
acc,1778672677.0,96.0,-0.276013611419467,0.1415293744641533,-9.8018315176426,,,,,,,,,,
acc,1778672677.0,96.0,-0.2828846967822486,0.1414145279275973,-9.80253273563948,,,,,,,,,,
acc,1778672677.0,96.0,-0.2900484989402326,0.14094535311266973,-9.802836647764366,,,,,,,,,,
acc,1778672677.0,96.0,-0.29714697712010524,0.14048045652383842,-9.80313778863056,,,,,,,,,,
acc,1778672677.0,96.0,-0.3045361008679244,0.1400197988847692,-9.803080813841591,,,,,,,,,,
acc,1778672677.0,96.0,-0.3118578543581215,0.13991869480560298,-9.803024358519659,,,,,,,,,,
acc,1778672677.0,96.0,-0.3194682113840378,0.1394631660586925,-9.803359306245458,,,,,,,,,,
acc,1778672677.0,96.0,-0.32736452880878947,0.13936712955934014,-9.803655668326368,,,,,,,,,,
acc,1778672677.0,96.0,-0.33518886441902873,0.1389166358881455,-9.803949328808647,,,,,,,,,,
acc,1778672677.0,96.0,-0.3425865525443848,0.13882557454052527,-9.804275843244652,,,,,,,,,,
acc,1778672677.0,96.0,-0.35027213124285184,0.13873534320261,-9.80456385144033,,,,,,,,,,
acc,1778672677.0,96.0,-0.35753234811380524,0.1382906214114917,-9.804884764097471,,,,,,,,,,
acc,1778672677.0,96.0,-0.36472639647523225,0.1382052592445544,-9.805558058503175,,,,,,,,,,
acc,1778672677.0,96.0,-0.37221018311168647,0.13812067501413527,-9.806189688725095,,,,,,,,,,
acc,1778672677.0,96.0,-0.3799455373635561,0.13803686159047593,-9.80646026883912,,,,,,,,,,
acc,1778672677.0,96.0,-0.3879657010011362,0.13827357303347057,-9.80676391030497,,,,,,,,,,
acc,1778672677.0,96.0,-0.39626806738786907,0.1385081275698028,-9.807029258598225,,,,,,,,,,
acc,1778672677.0,96.0,-0.4044947866227379,0.138740544958507,-9.806972429483526,,,,,,,,,,
acc,1778672677.0,96.0,-0.41335710211890464,0.13865109931278063,-9.807235872700229,,,,,,,,,,
acc,1778672677.0,96.0,-0.4217834111026097,0.13856246857437066,-9.807496915779922,,,,,,,,,,
acc,1778672677.0,96.0,-0.430132954579869,0.138474645281253,-9.807755580700416,,,,,,,,,,
acc,1778672677.0,96.0,-0.43908142026549757,0.13838762204075025,-9.808047412840493,,,,,,,,,,
acc,1778672677.0,96.0,-0.44762864501771205,0.13830139152885967,-9.80830106349197,,,,,,,,,,
acc,1778672677.0,96.0,-0.4567729872491473,0.13853566768389783,-9.808552403642937,,,,,,,,,,
acc,1778672677.0,96.0,-0.4661892851416557,0.13876780991308282,-9.808801454439077,,,,,,,,,,
acc,1778672677.0,96.0,-0.4755198174761353,0.13899783774358848,-9.80904823682987,,,,,,,,,,
acc,1778672677.0,96.0,-0.4851205976949283,0.13922577052146617,-9.809292771570474,,,,,,,,,,
acc,1778672677.0,96.0,-0.4949891631903121,0.1394516274133902,-9.809570599793293,,,,,,,,,,
acc,1778672677.0,96.0,-0.504767854863856,0.1396754274083847,-9.809455149482243,,,,,,,,,,
acc,1778672677.0,96.0,-0.5151324131621314,0.13957749446618564,-9.809340750544827,,,,,,,,,,
acc,1778672677.0,96.0,-0.5254025880043579,0.13948045333715214,-9.80961813154106,,,,,,,,,,
acc,1778672677.0,96.0,-0.5355792424537797,0.13938429586634696,-9.80989298670106,,,,,,,,,,
acc,1778672677.0,96.0,-0.5460184416876092,0.13928901397431484,-9.810520540128243,,,,,,,,,,
acc,1778672677.0,96.0,-0.5570729909095455,0.13951427848663475,-9.810787182788143,,,,,,,,,,
acc,1778672677.0,96.0,-0.5680268883368746,0.13973749196304436,-9.811051397663634,,,,,,,,,,
acc,1778672677.0,96.0,-0.5792362422018538,0.13963900190314454,-9.810602821344004,,,,,,,,,,
acc,1778672677.0,96.0,-0.5910184027653822,0.13954140853321853,-9.810868706432947,,,,,,,,,,
acc,1778672677.0,96.0,-0.6023381177192073,0.13944470365903955,-9.8107414654703,,,,,,,,,,
acc,1778672677.0,96.0,-0.6142651331502393,0.1389937029828128,-9.811006083949165,,,,,,,,,,
acc,1778672677.0,96.0,-0.6260835715722352,0.13854680796946384,-9.811268293486483,,,,,,,,,,
acc,1778672677.0,96.0,-0.6381496024809742,0.13810398111137684,-9.811137423477179,,,,,,,,,,
acc,1778672677.0,96.0,-0.650105797918714,0.13802034999553411,-9.811398433257212,,,,,,,,,,
acc,1778672677.0,96.0,-0.6626279780592651,0.13758231906359608,-9.81094673593166,,,,,,,,,,
acc,1778672677.0,96.0,-0.6750361775260271,0.13714827522178152,-9.811209474121027,,,,,,,,,,
acc,1778672677.0,96.0,-0.6876865911372778,0.13671818205929512,-9.811114657840815,,,,,,,,,,
acc,1778672677.0,96.0,-0.7005770232759339,0.13629200350106696,-9.811340350870688,,,,,,,,,,
acc,1778672677.0,96.0,-0.7137052802549773,0.1355145476772707,-9.81085367750213,,,,,,,,,,
acc,1778672677.0,96.0,-0.7267140538876992,0.13474416766129818,-9.811081739011371,,,,,,,,,,
acc,1778672677.0,96.0,-0.7402792125909536,0.1339807988580725,-9.810597425972094,,,,,,,,,,
acc,1778672677.0,96.0,-0.753720918459956,0.13357952351783448,-9.811218462091464,,,,,,,,,,
acc,1778672677.0,96.0,-0.7673954322958583,0.1331818999770761,-9.81108805784053,,,,,,,,,,
acc,1778672677.0,96.0,-0.7809455047506093,0.13346264537523356,-9.811669111128417,,,,,,,,,,
acc,1778672677.0,96.0,-0.7947274083834853,0.1330660913342693,-9.81117947521999,,,,,,,,,,
acc,1778672677.0,96.0,-0.8087390337335095,0.1326731458445909,-9.811440073339572,,,,,,,,,,
acc,1778672677.0,96.0,-0.8226231596929592,0.13228377597938226,-9.8116983001353,,,,,,,,,,
acc,1778672677.0,96.0,-0.8363809495643738,0.13189794911469904,-9.81156353911728,,,,,,,,,,
acc,1778672677.0,96.0,-0.8500135559521841,0.13187074903944934,-9.81182063930001,,,,,,,,,,
acc,1778672677.0,96.0,-0.8638772341833398,0.13184379645447425,-9.81168476823373,,,,,,,,,,
acc,1778672677.0,96.0,-0.8779343727263844,0.13146197852449162,-9.811940762321573,,,,,,,,,,
acc,1778672677.0,96.0,-0.8922187299205834,0.1310836345499974,-9.811839310281352,,,,,,,,,,
acc,1778672677.0,96.0,-0.906018010044592,0.13035361851396363,-9.811738781277763,,,,,,,,,,
acc,1778672677.0,96.0,-0.9193721493628857,0.12963024420384758,-9.81195877018193,,,,,,,,,,
acc,1778672677.0,96.0,-0.9329243865316881,0.12926856023653335,-9.811821648471886,,,,,,,,,,
acc,1778672677.0,96.0,-0.9470635342854508,0.12855506006467113,-9.812040880932523,,,,,,,,,,
acc,1778672677.0,96.0,-0.9607189563902039,0.1282031551670951,-9.81261321406703,,,,,,,,,,
acc,1778672677.0,96.0,-0.9738950494030892,0.1282095443710504,-9.812860755255416,,,,,,,,,,
acc,1778672677.0,96.0,-0.9873063775926814,0.1278607850992143,-9.813425627671664,,,,,,,,,,
acc,1778672677.0,96.0,-1.0005957039754125,0.12716010134698877,-9.814375965588397,,,,,,,,,,
acc,1778672677.0,96.0,-1.013409045913028,0.1264657915361868,-9.814927056935637,,,,,,,,,,
acc,1778672677.0,96.0,-1.0264609229620847,0.1257777975640027,-9.81550864177298,,,,,,,,,,
acc,1778672677.0,96.0,-1.0390389845242751,0.1250960618605365,-9.816049429970189,,,,,,,,,,
acc,1778672677.0,96.0,-1.05150263310882,0.12513069473983357,-9.816265725994324,,,,,,,,,,
acc,1778672677.0,96.0,-1.063852911493781,0.12548458372253496,-9.816124968475588,,,,,,,,,,
acc,1778672677.0,96.0,-1.076445936912035,0.1258352537640375,-9.816340575288374,,,,,,,,,,
acc,1778672677.0,96.0,-1.088924419342892,0.1265378161659551,-9.816554220995895,,,,,,,,,,
acc,1778672677.0,96.0,-1.1009343226280877,0.12687890839028618,-9.816730418200494,,,,,,,,,,
acc,1778672677.0,96.0,-1.1128349905659982,0.12689733440976314,-9.817295586777849,,,,,,,,,,
acc,1778672677.0,96.0,-1.1243078564107922,0.1269155928392645,-9.817855614983557,,,,,,,,,,
acc,1778672677.0,96.0,-1.1356763749150123,0.12796339385132816,-9.818019979915178,,,,,,,,,,
acc,1778672677.0,96.0,-1.1469414967788063,0.12900166511644698,-9.818537913130575,,,,,,,,,,
acc,1778672677.0,96.0,-1.1581041639961074,0.12967542301818485,-9.819406197166037,,,,,,,,,,
acc,1778672677.0,96.0,-1.1688102503898692,0.13034305328377518,-9.819911524859897,,,,,,,,,,
acc,1778672677.0,96.0,-1.1797740272226034,0.13032999105081794,-9.820447760771378,,,,,,,,,,
acc,1778672677.0,96.0,-1.190638094607792,0.13031704761159862,-9.82062406387623,,,,,,,,,,
acc,1778672677.0,96.0,-1.201048306449496,0.1303042218840435,-9.821153817959624,,,,,,,,,,
acc,1778672677.0,96.0,-1.2113638459362046,0.13029151279598147,-9.820933136507694,,,,,,,,,,
acc,1778672677.0,96.0,-1.2215855753500742,0.12992386827047775,-9.821460076346943,,,,,,,,,,
acc,1778672677.0,96.0,-1.2317143490840314,0.12955956707812738,-9.821627174832939,,,,,,,,,,
acc,1778672677.0,96.0,-1.2421060615292634,0.129553626584486,-9.821402193890467,,,,,,,,,,
acc,1778672677.0,96.0,-1.252048228753961,0.12986728356147006,-9.82188936045827,,,,,,,,,,
acc,1778672677.0,96.0,-1.2618999862162061,0.13159828537188623,-9.822052554870451,,,,,,,,,,
acc,1778672677.0,96.0,-1.27233674116006,0.13363309621514036,-9.822214265282314,,,,,,,,,,
acc,1778672677.0,96.0,-1.28235905178444,0.13532985535330097,-9.822374505207014,,,,,,,,,,
acc,1778672677.0,96.0,-1.2926097653855422,0.1370111854802278,-9.822142736425178,,,,,,,,,,
acc,1778672677.0,96.0,-1.3031223160537053,0.13796714930851564,-9.821913075143312,,,,,,,,,,
acc,1778672677.0,96.0,-1.312864693896842,0.13855937397219745,-9.821721004104107,,,,,,,,,,
acc,1778672677.0,96.0,-1.3221634491539436,0.1387911683865676,-9.821530679547612,,,,,,,,,,
acc,1778672677.0,96.0,-1.3310226088663057,0.1393758990062847,-9.820987050797838,,,,,,,,,,
acc,1778672677.0,96.0,-1.3408308228831014,0.14031035539355613,-9.820803398552167,,,,,,,,,,
acc,1778672677.0,96.0,-1.3505498548052113,0.14159134730727324,-9.820940956030237,,,,,,,,,,
acc,1778672677.0,96.0,-1.3598609868746967,0.14321572269398394,-9.820402693181041,,,,,,,,,,
acc,1778672677.0,96.0,-1.3690874584344004,0.14514486619176825,-9.820934422421603,,,,,,,,,,
acc,1778672677.0,96.0,-1.3782300401292196,0.14705646933446395,-9.820715750095799,,,,,,,,,,
acc,1778672677.0,96.0,-1.3872894955653372,0.14895069178287895,-9.820889603175802,,,,,,,,,,
acc,1778672677.0,96.0,-1.3962665813751511,0.15050815741824503,-9.821061875563307,,,,,,,,,,
acc,1778672678.0,97.0,-1.4051620472815858,0.15205146253455532,-9.820842047035066,,,,,,,,,,
acc,1778672678.0,97.0,-1.413976636161794,0.15358073601613395,-9.821369774242186,,,,,,,,,,
acc,1778672678.0,97.0,-1.4223560615180897,0.15438606038622185,-9.82118264915896,,,,,,,,,,
acc,1778672678.0,97.0,-1.430304272518877,0.154829032355105,-9.821352255953641,,,,,,,,,,
acc,1778672678.0,97.0,-1.4381802209101846,0.1559780268747382,-9.821520320737225,,,,,,,,,,
acc,1778672678.0,97.0,-1.44633959276721,0.15711657519567684,-9.820692790638047,,,,,,,,,,
acc,1778672678.0,97.0,-1.4550993201409608,0.15891931807509807,-9.820866848032827,,,,,,,,,,
acc,1778672678.0,97.0,-1.463459891603207,0.16070567142562148,-9.821749366655146,,,,,,,,,,
acc,1778672678.0,97.0,-1.4706793870606698,0.16215625883131318,-9.821523295149605,,,,,,,,,,
acc,1778672678.0,97.0,-1.4785432967885783,0.1639131832040633,-9.82204481831521,,,,,,,,,,
acc,1778672678.0,97.0,-1.486690728382318,0.16565413500701923,-9.823271637945691,,,,,,,,,,
acc,1778672678.0,97.0,-1.494764090558524,0.1667047232581816,-9.823741769030653,,,,,,,,,,
acc,1778672678.0,97.0,-1.5020540233037134,0.16703572657067103,-9.823497592150613,,,,,,,,,,
acc,1778672678.0,97.0,-1.5096327039302502,0.16736372073413755,-9.82361065569493,,,,,,,,,,
acc,1778672678.0,97.0,-1.517142487347793,0.16804375284131762,-9.82407770201248,,,,,,,,,,
acc,1778672678.0,97.0,-1.5252585207364566,0.16907261261636897,-9.823475455078434,,,,,,,,,,
acc,1778672678.0,97.0,-1.5333007729848906,0.1693820924096988,-9.823588718967489,,,,,,,,,,
acc,1778672678.0,97.0,-1.541624932462658,0.1703987839393133,-9.824091460211859,,,,,,,,,,
acc,1778672678.0,97.0,-1.5498734198595856,0.17140623307468686,-9.824589631207884,,,,,,,,,,
acc,1778672678.0,97.0,-1.5576919081585674,0.17240452389940805,-9.82437325171955,,,,,,,,,,
acc,1778672678.0,97.0,-1.565794336891292,0.17303873417411658,-9.824513853880193,,,,,,,,,,
acc,1778672678.0,97.0,-1.5738231107413394,0.1733121653272139,-9.825008182665263,,,,,,,,,,
acc,1778672678.0,97.0,-1.5811043812703753,0.17219857533860228,-9.825107515232034,,,,,,,,,,
acc,1778672678.0,97.0,-1.588319462500398,0.17109510827296684,-9.824247421589018,,,,,,,,,,
acc,1778672678.0,97.0,-1.5957884605776427,0.17071168607865778,-9.824389166095191,,,,,,,,,,
acc,1778672678.0,97.0,-1.6038995762677295,0.17033174928220352,-9.824139112930087,,,,,,,,,,
acc,1778672678.0,97.0,-1.6115819594512906,0.1699552661792282,-9.824246342894366,,,,,,,,,,
acc,1778672678.0,97.0,-1.618839499428075,0.16990170744488695,-9.824352598124978,,,,,,,,,,
acc,1778672678.0,97.0,-1.6260310678589833,0.17055865295171138,-9.824138376936846,,,,,,,,,,
acc,1778672678.0,97.0,-1.6335122728212412,0.17085461880304087,-9.82389060494838,,,,,,,,,,
acc,1778672678.0,97.0,-1.640250966313996,0.17047338675536605,-9.82332558495635,,,,,,,,,,
acc,1778672678.0,97.0,-1.6469284056648623,0.17041511972233692,-9.82312069853686,,,,,,,,,,
acc,1778672678.0,97.0,-1.6535451480040544,0.17106739438795224,-9.822527170600749,,,,,,,,,,
acc,1778672678.0,97.0,-1.6601017453854114,0.1720687363034282,-9.821939037723244,,,,,,,,,,
acc,1778672678.0,97.0,-1.6672732475315408,0.17235097580642766,-9.821072250656146,,,,,,,,,,
acc,1778672678.0,97.0,-1.6747345578116195,0.1733406490540469,-9.82191734057233,,,,,,,,,,
acc,1778672678.0,97.0,-1.6810985523794082,0.1743213264969999,-9.821334752864027,,,,,,,,,,
acc,1778672678.0,97.0,-1.6877241969226904,0.17564808382239608,-9.821112463621084,,,,,,,,,,
acc,1778672678.0,97.0,-1.6949996128087654,0.17589779251475926,-9.820288700844149,,,,,,,,,,
acc,1778672678.0,97.0,-1.7025639003474362,0.1757902296607202,-9.820430920579652,,,,,,,,,,
acc,1778672678.0,97.0,-1.710414424509697,0.1767486391611694,-9.82096233717079,,,,,,,,,,
acc,1778672678.0,97.0,-1.7171286077966796,0.1773433456335316,-9.820743433820668,,,,,,,,,,
acc,1778672678.0,97.0,-1.7241367542012647,0.17722264625479564,-9.82088152033303,,,,,,,,,,
acc,1778672678.0,97.0,-1.7314362006182789,0.17781304321785332,-9.821373342268858,,,,,,,,,,
acc,1778672678.0,97.0,-1.7383143008690574,0.17804307475989894,-9.820795705632449,,,,,,,,,,
acc,1778672678.0,97.0,-1.743745414091012,0.17759652450293167,-9.820578317900289,,,,,,,,,,
acc,1778672678.0,97.0,-1.7498016435094232,0.17782852307495564,-9.820717904156204,,,,,,,,,,
acc,1778672678.0,97.0,-1.7561578241883635,0.17770341535897863,-9.821601704837832,,,,,,,,,,
acc,1778672678.0,97.0,-1.7617817442747887,0.17793444188897214,-9.82208697839623,,,,,,,,,,
acc,1778672678.0,97.0,-1.767354547786048,0.17816336858738835,-9.822212853679797,,,,,,,,,,
acc,1778672678.0,97.0,-1.7728766995291347,0.17874521072685878,-9.82233758487033,,,,,,,,,,
acc,1778672678.0,97.0,-1.7786681498662038,0.18003173773134165,-9.822496679216762,,,,,,,,,,
acc,1778672678.0,97.0,-1.7844069615397262,0.1809515852707012,-9.822618830749214,,,,,,,,,,
acc,1778672678.0,97.0,-1.7904486080097213,0.18150808657856152,-9.82277536880355,,,,,,,,,,
acc,1778672678.0,97.0,-1.7964353421859545,0.18205952986731266,-9.824350443496307,,,,,,,,,,
acc,1778672678.0,97.0,-1.8023676633617294,0.18260596112729482,-9.824491244743756,,,,,,,,,,
acc,1778672678.0,97.0,-1.8082460662851587,0.18453187624487283,-9.824985750727215,,,,,,,,,,
acc,1778672678.0,97.0,-1.8137160480595442,0.18679528012196472,-9.82508528157154,,,,,,,,,,
acc,1778672678.0,97.0,-1.8194913068194516,0.18868311956048817,-9.825219404344109,,,,,,,,,,
acc,1778672678.0,97.0,-1.8252140753923776,0.19090879314118783,-9.825707291355803,,,,,,,,,,
acc,1778672678.0,97.0,-1.8305298390700782,0.1920847677770621,-9.826545736027011,,,,,,,,,,
acc,1778672678.0,97.0,-1.8357972891382461,0.19325005428178108,-9.827376560290142,,,,,,,,,,
acc,1778672678.0,97.0,-1.841016864859832,0.19369478561170528,-9.828164327948173,,,,,,,,,,
acc,1778672678.0,97.0,-1.846189001499915,0.19413547491849725,-9.828944935833814,,,,,,,,,,
acc,1778672678.0,97.0,-1.8516691208302245,0.1963115877078619,-9.829043982601583,,,,,,,,,,
acc,1778672678.0,97.0,-1.8570994333842563,0.1991778937524458,-9.829461613910551,,,,,,,,,,
acc,1778672678.0,97.0,-1.8618059177918758,0.20130817863735803,-9.829875449534402,,,,,,,,,,
acc,1778672678.0,97.0,-1.8661146466211795,0.20238963930020648,-9.829966039862265,,,,,,,,,,
acc,1778672678.0,97.0,-1.8707391953510906,0.20239632196727025,-9.830730270671943,,,,,,,,,,
acc,1778672678.0,97.0,-1.8756411972755274,0.20346789199559728,-9.831523060988014,,,,,,,,,,
acc,1778672678.0,97.0,-1.880498647356973,0.20452972306004955,-9.831598678250016,,,,,,,,,,
acc,1778672678.0,97.0,-1.8849924676817746,0.20558190369936152,-9.832028587294461,,,,,,,,,,
acc,1778672678.0,97.0,-1.8887354796220739,0.20871892515050564,-9.832454589131682,,,,,,,,,,
acc,1778672678.0,97.0,-1.8931544393774702,0.21182743601087542,-9.831776269855673,,,,,,,,,,
acc,1778672678.0,97.0,-1.89785271995739,0.2124583174414955,-9.83181408981098,,,,,,,,,,
acc,1778672678.0,97.0,-1.9025083007739714,0.21272848736855687,-9.83153207510752,,,,,,,,,,
acc,1778672678.0,97.0,-1.9071215700036346,0.21402564761522588,-9.83160761006494,,,,,,,,,,
acc,1778672678.0,97.0,-1.9113734309596775,0.2163759596340146,-9.831291976303756,,,,,,,,,,
acc,1778672678.0,97.0,-1.9155866496656766,0.21799494827435872,-9.830624225076038,,,,,,,,,,
acc,1778672678.0,97.0,-1.919761577404266,0.21995420884179312,-9.830672514108802,,,,,,,,,,
acc,1778672678.0,97.0,-1.9235435858488112,0.2226056250299061,-9.829726408509956,,,,,,,,,,
acc,1778672678.0,97.0,-1.9269362372118939,0.22590741006719506,-9.83017332832913,,,,,,,,,,
acc,1778672678.0,97.0,-1.930298055373229,0.22953416360547962,-9.829231760479706,,,,,,,,,,
acc,1778672678.0,97.0,-1.9336293206186381,0.2331279564389842,-9.828298749798446,,,,,,,,,,
acc,1778672678.0,97.0,-1.9369303106842377,0.23704406357381988,-9.828013186908654,,,,,,,,,,
acc,1778672678.0,97.0,-1.9402013007796823,0.2409245804479053,-9.827410739823865,,,,,,,,,,
acc,1778672678.0,97.0,-1.9434425636111938,0.24476983058441382,-9.827523726747687,,,,,,,,,,
acc,1778672678.0,97.0,-1.9466543694043799,0.2499645557185381,-9.827600191182738,,,,,,,,,,
acc,1778672678.0,97.0,-1.9494820024154333,0.2547570961526156,-9.827356472813456,,,,,,,,,,
acc,1778672678.0,97.0,-1.952283937613581,0.2584766363395864,-9.826724490496655,,,,,,,,,,
acc,1778672678.0,97.0,-1.955415391649725,0.26287233915199587,-9.827553670410904,,,,,,,,,,
acc,1778672678.0,97.0,-1.958518386825062,0.2661631541034227,-9.827665358096608,,,,,,,,,,
acc,1778672678.0,97.0,-1.9612381992072652,0.26906908843379646,-9.827740535223322,,,,,,,,,,
acc,1778672678.0,97.0,-1.9639332938456848,0.2709191709169689,-9.82856048038032,,,,,,,,,,
acc,1778672678.0,97.0,-1.9669588776183924,0.2720424845099345,-9.828663018552106,,,,,,,,,,
acc,1778672678.0,97.0,-1.9706669197838789,0.2728006165220984,-9.829474579756786,,,,,,,,,,
acc,1778672678.0,97.0,-1.9732763270286553,0.27323237230270686,-9.830278765505437,,,,,,,,,,
acc,1778672678.0,97.0,-1.9755070475525778,0.2746896445625949,-9.831040138317785,,,,,,,,,,
acc,1778672678.0,97.0,-1.9784274491027687,0.2764886455112027,-9.830765161196458,,,,,,,,,,
acc,1778672678.0,97.0,-1.982031263551178,0.27862627845703636,-9.83120263638239,,,,,,,,,,
acc,1778672678.0,97.0,-1.986276784384341,0.2803895037320082,-9.831245668515562,,,,,,,,,,
acc,1778672678.0,97.0,-1.9901287414633224,0.2824916858110056,-9.83167877668526,,,,,,,,,,
acc,1778672678.0,97.0,-1.9936262161218943,0.28524922036463324,-9.832072453472916,,,,,,,,,,
acc,1778672678.0,97.0,-1.9970919061388486,0.2890466180333523,-9.83210758117853,,,,,,,,,,
acc,1778672678.0,97.0,-2.0005261004160495,0.2920995539204045,-9.831822904645914,,,,,,,,,,
acc,1778672678.0,97.0,-2.0042485609891956,0.2947697741155533,-9.8315408152128,,,,,,,,,,
acc,1778672678.0,97.0,-2.007937192422915,0.29848064949638353,-9.831261289364331,,,,,,,,,,
acc,1778672678.0,97.0,-2.012302252717257,0.30251278087278344,-9.831658759064387,,,,,,,,,,
acc,1778672678.0,97.0,-2.015917693941457,0.30650826897198713,-9.831697646078002,,,,,,,,,,
acc,1778672678.0,97.0,-2.018825833169038,0.3107869220237682,-9.831026220728901,,,,,,,,,,
acc,1778672678.0,97.0,-2.0223819890987214,0.3143522371992744,-9.830751371687974,,,,,,,,,,
acc,1778672678.0,97.0,-2.02626080663195,0.31753017239432324,-9.830833999588599,,,,,,,,,,
acc,1778672678.0,97.0,-2.0304593442978818,0.32138918529014054,-9.830560897562847,,,,,,,,,,
acc,1778672678.0,97.0,-2.0349747055411043,0.3245031706565441,-9.829899803385812,,,,,,,,,,
acc,1778672678.0,97.0,-2.0387390839474673,0.32655943404028454,-9.829599695796153,,,,,,,,,,
acc,1778672678.0,97.0,-2.0417947997183745,0.32891649409930906,-9.82933781063782,,,,,,,,,,
acc,1778672678.0,97.0,-2.0451422202244576,0.3309326505133292,-9.829078305419996,,,,,,,,,,
acc,1778672678.0,97.0,-2.049169167860892,0.3325755154486294,-9.828466189288138,,,,,,,,,,
acc,1778672678.0,97.0,-2.0531595197863544,0.3345584196012787,-9.828214604975676,,,,,,,,,,
acc,1778672678.0,97.0,-2.0574685866565128,0.33652330372687583,-9.828284789950118,,,,,,,,,,
acc,1778672678.0,97.0,-2.0620934629134617,0.33878981445429457,-9.8279993591919,,,,,,,,,,
acc,1778672678.0,97.0,-2.066321341101623,0.34103572787001174,-9.827113070095077,,,,,,,,,,
acc,1778672678.0,97.0,-2.070510797750116,0.3436161997510516,-9.826483309663017,,,,,,,,,,
acc,1778672678.0,97.0,-2.0746621820609614,0.3461732211932905,-9.825859272276643,,,,,,,,,,
acc,1778672678.0,97.0,-2.078420862644279,0.34803255459893334,-9.82524090592105,,,,,,,,,,
acc,1778672678.0,97.0,-2.082145385704061,0.3484551000390867,-9.82501863135629,,,,,,,,,,
acc,1778672678.0,97.0,-2.0854810935904546,0.34958375082018817,-9.824798376740011,,,,,,,,,,
acc,1778672679.0,98.0,-2.0887864878351867,0.35208653996837125,-9.824544628733154,,,,,,,,,,
acc,1778672679.0,98.0,-2.091706866990569,0.35353716702274995,-9.824293186689243,,,,,,,,,,
acc,1778672679.0,98.0,-2.0946007069038437,0.35600402875861453,-9.824399006495447,,,,,,,,,,
acc,1778672679.0,98.0,-2.0978232255140936,0.3580935050092181,-9.824894327251249,,,,,,,,,,
acc,1778672679.0,98.0,-2.1003420099761354,0.359844511273407,-9.825349651800767,,,,,,,,,,
acc,1778672679.0,98.0,-2.103157377303232,0.363638447175236,-9.825800838553464,,,,,,,,,,
acc,1778672679.0,98.0,-2.1059471597858392,0.36810784918306455,-9.825537981355662,,,,,,,,,,
acc,1778672679.0,98.0,-2.108711589949755,0.37289160246280906,-9.825987456447223,,,,,,,,,,
acc,1778672679.0,98.0,-2.1121608415677753,0.3765669726314241,-9.82714279027076,,,,,,,,,,
acc,1778672679.0,98.0,-2.115933724080461,0.38091888587176725,-9.826867738611531,,,,,,,,,,
acc,1778672679.0,98.0,-2.1196723203780246,0.38384685985744305,-9.82695016252661,,,,,,,,,,
acc,1778672679.0,98.0,-2.122666999275732,0.3863932498497978,-9.826357389490282,,,,,,,,,,
acc,1778672679.0,98.0,-2.1252794881103307,0.3896264511543158,-9.826444451040192,,,,,,,,,,
acc,1778672679.0,98.0,-2.127548764088408,0.3907359382609263,-9.825856273841193,,,,,,,,,,
acc,1778672679.0,98.0,-2.1304718654050023,0.3914803672244776,-9.824989464809386,,,,,,,,,,
acc,1778672679.0,98.0,-2.1340783451019765,0.39047867537783093,-9.824130532907725,,,,,,,,,,
acc,1778672679.0,98.0,-2.136267661942822,0.39016053348257596,-9.823882854892952,,,,,,,,,,
acc,1778672679.0,98.0,-2.137372166241015,0.39091019075831884,-9.821259120564143,,,,,,,,,,
acc,1778672679.0,98.0,-2.13882160870305,0.3916530355355304,-9.821073030719914,,,,,,,,,,
acc,1778672679.0,98.0,-2.1406128546371064,0.3916791883182159,-9.819894713990239,,,,,,,,,,
acc,1778672679.0,98.0,-2.142387822674563,0.39379943239861415,-9.819082080349217,,,,,,,,,,
acc,1778672679.0,98.0,-2.143081744565726,0.39728479623994434,-9.81827683148844,,,,,,,,,,
acc,1778672679.0,98.0,-2.143769360469701,0.3983246877771887,-9.816768959352784,,,,,,,,,,
acc,1778672679.0,98.0,-2.1448056935478346,0.3990001544089225,-9.816588178127294,,,,,,,,,,
acc,1778672679.0,98.0,-2.146542558733677,0.3996694827726909,-9.816089568724028,,,,,,,,,,
acc,1778672679.0,98.0,-2.1479086654640875,0.3989483424093,-9.815311514205588,,,,,,,,,,
acc,1778672679.0,98.0,-2.148907383063886,0.3996181413302025,-9.814824506351089,,,,,,,,,,
acc,1778672679.0,98.0,-2.149222588495464,0.40166623919349936,-9.81370297340855,,,,,,,,,,
acc,1778672679.0,98.0,-2.149854400284875,0.40334075962240196,-9.813585548425147,,,,,,,,,,
acc,1778672679.0,98.0,-2.150835435963305,0.40468058318858324,-9.812084814455163,,,,,,,,,,
acc,1778672679.0,98.0,-2.152162531012367,0.40703764167708106,-9.811307649004185,,,,,,,,,,
acc,1778672679.0,98.0,-2.153122591818532,0.40866335001125953,-9.811886435915559,,,,,,,,,,
acc,1778672679.0,98.0,-2.1537189629285014,0.41098421534175145,-9.811146577250204,,,,,,,,,,
acc,1778672679.0,98.0,-2.1546648797463313,0.4125740596954863,-9.811726827650752,,,,,,,,,,
acc,1778672679.0,98.0,-2.156312149037313,0.41450442161335826,-9.811236891581943,,,,,,,,,,
acc,1778672679.0,98.0,-2.158299413996614,0.417482154899407,-9.811461356027495,,,,,,,,,,
acc,1778672679.0,98.0,-2.1605880902187233,0.42007785429314315,-9.811683780677752,,,,,,,,,,
acc,1778672679.0,98.0,-2.1621815331762275,0.4226499655735589,-9.811194236031643,,,,,,,,,,
acc,1778672679.0,98.0,-2.164115460789977,0.42555367706835245,-9.81109960869497,,,,,,,,,,
acc,1778672679.0,98.0,-2.167061222959784,0.42946041033061916,-9.810650876453504,,,,,,,,,,
acc,1778672679.0,98.0,-2.1703351897512406,0.4329766678133821,-9.810206222007714,,,,,,,,,,
acc,1778672679.0,98.0,-2.173224431013737,0.4357865370143193,-9.810440052152149,,,,,,,,,,
acc,1778672679.0,98.0,-2.175377478297251,0.43857087191898664,-9.811026722054063,,,,,,,,,,
acc,1778672679.0,98.0,-2.1771914901098786,0.4416493745393215,-9.810933617024247,,,,,,,,,,
acc,1778672679.0,98.0,-2.180373399105408,0.44438043180393305,-9.811870766181304,,,,,,,,,,
acc,1778672679.0,98.0,-2.1838813574853733,0.4460217593145391,-9.812479929266708,,,,,,,,,,
acc,1778672679.0,98.0,-2.1870024733823614,0.447293207061674,-9.813403026502243,,,,,,,,,,
acc,1778672679.0,98.0,-2.1890303152435924,0.45029244630470705,-9.814317735237799,,,,,,,,,,
acc,1778672679.0,98.0,-2.19103972942045,0.4532644304470406,-9.815934078594964,,,,,,,,,,
acc,1778672679.0,98.0,-2.1940957944849346,0.45588993747879886,-9.81682578690405,,,,,,,,,,
acc,1778672679.0,98.0,-2.197798521995535,0.45916601957994674,-9.817389922309104,,,,,,,,,,
acc,1778672679.0,98.0,-2.2014676016093033,0.4627673041575451,-9.819688275898969,,,,,,,,,,
acc,1778672679.0,98.0,-2.204428905357682,0.4670458001336894,-9.820900841992135,,,,,,,,,,
acc,1778672679.0,98.0,-2.207363298789764,0.4716048855817272,-9.82210238910857,,,,,,,,,,
acc,1778672679.0,98.0,-2.211300433221302,0.47580307167639246,-9.823328511976703,,,,,,,,,,
acc,1778672679.0,98.0,-2.2148468165416433,0.480637541043317,-9.823443096864917,,,,,,,,,,
acc,1778672679.0,98.0,-2.218360972774644,0.48649298827764653,-9.824266568497016,,,,,,,,,,
acc,1778672679.0,98.0,-2.221168761436421,0.49194026129580243,-9.82472759302327,,,,,,,,,,
acc,1778672679.0,98.0,-2.223596061854154,0.4973380332849954,-9.825894365018693,,,,,,,,,,
acc,1778672679.0,98.0,-2.226356277635422,0.5044260971314616,-9.8263405973436,,,,,,,,,,
acc,1778672679.0,98.0,-2.229091410511735,0.5121241827558121,-9.82820264819228,,,,,,,,,,
acc,1778672679.0,98.0,-2.2324761214859814,0.5187229076423243,-9.830047778034341,,,,,,,,,,
acc,1778672679.0,98.0,-2.2355106053860068,0.5256166408453038,-9.83223110441577,,,,,,,,,,
acc,1778672679.0,98.0,-2.237097640923159,0.5310633501241752,-9.834749563102696,,,,,,,,,,
acc,1778672679.0,98.0,-2.237640848969847,0.5374899692339045,-9.835150820906756,,,,,,,,,,
acc,1778672679.0,98.0,-2.2385340934854976,0.5442131605821571,-9.836932810663457,,,,,,,,,,
acc,1778672679.0,98.0,-2.2397741844700283,0.5505202836746443,-9.839089074243612,,,,,,,,,,
acc,1778672679.0,98.0,-2.2416774481459503,0.557480028465181,-9.840125339737666,,,,,,,,,,
acc,1778672679.0,98.0,-2.2435634163381755,0.5640215645620024,-9.84296252803569,,,,,,,,,,
acc,1778672679.0,98.0,-2.244402841065779,0.5694387471488745,-9.843963594555884,,,,,,,,,,
acc,1778672679.0,98.0,-2.245589601215366,0.57480670232553,-9.84389066451764,,,,,,,,,,
acc,1778672679.0,98.0,-2.2467655769558648,0.5787414999179555,-9.84523826927387,,,,,,,,,,
acc,1778672679.0,98.0,-2.247220930322552,0.5829955134821031,-9.845153756049257,,,,,,,,,,
acc,1778672679.0,98.0,-2.2469622098646838,0.5872108696994072,-9.846170404660738,,,,,,,,,,
acc,1778672679.0,98.0,-2.2467058404674782,0.5920978557178789,-9.847497292666961,,,,,,,,,,
acc,1778672679.0,98.0,-2.2461323319316615,0.5976148736964642,-9.848492644975654,,,,,,,,,,
acc,1778672679.0,98.0,-2.245564035015778,0.6027267846998658,-9.848378558689703,,,,,,,,,,
acc,1778672679.0,98.0,-2.244645929976946,0.6074727736780188,-9.849330408107585,,,,,,,,,,
acc,1778672679.0,98.0,-2.244091140346146,0.6111107266739311,-9.848889231093038,,,,,,,,,,
acc,1778672679.0,98.0,-2.2435413922282117,0.6157805285723552,-9.849481467467223,,,,,,,,,,
acc,1778672679.0,98.0,-2.2429966398085166,0.6210823358276794,-9.84900342331252,,,,,,,,,,
acc,1778672679.0,98.0,-2.241746902225694,0.6277203315867474,-9.848920190039802,,,,,,,,,,
acc,1778672679.0,98.0,-2.2397985859030056,0.6336235744236469,-9.848092274130352,,,,,,,,,,
acc,1778672679.0,98.0,-2.237867974405002,0.6391182008314938,-9.8472718816943,,,,,,,,,,
acc,1778672679.0,98.0,-2.237019805264837,0.6445628962421739,-9.847523851874518,,,,,,,,,,
acc,1778672679.0,98.0,-2.236179343640896,0.6496031513125936,-9.847454063744381,,,,,,,,,,
acc,1778672679.0,98.0,-2.234991556427024,0.6542426322349528,-9.846674974579289,,,,,,,,,,
acc,1778672679.0,98.0,-2.233104627746284,0.6571006142057088,-9.84657740586417,,,,,,,,,,
acc,1778672679.0,98.0,-2.2309153774945103,0.6596131564910894,-9.84577077956795,,,,,,,,,,
acc,1778672679.0,98.0,-2.229420452978018,0.6627772982300197,-9.845006986841696,,,,,,,,,,
acc,1778672679.0,98.0,-2.227939113185544,0.6666226308044721,-9.844250134876182,,,,,,,,,,
acc,1778672679.0,98.0,-2.2268262067061584,0.670787982912939,-9.842506251610441,,,,,,,,,,
acc,1778672679.0,98.0,-2.2253684414432677,0.6734956136228658,-9.842482059284558,,,,,,,,,,
acc,1778672679.0,98.0,-2.2235689603127966,0.6775985092941726,-9.840044308117749,,,,,,,,,,
acc,1778672679.0,98.0,-2.22178583147078,0.6837229275986949,-9.839048579073054,,,,,,,,,,
acc,1778672679.0,98.0,-2.2196994379180564,0.6908565987317344,-9.838700835238782,,,,,,,,,,
acc,1778672679.0,98.0,-2.2176320038848214,0.6979254446180245,-9.838356251429614,,,,,,,,,,
acc,1778672679.0,98.0,-2.2169677230188025,0.705285017179216,-9.838334276380456,,,,,,,,,,
acc,1778672679.0,98.0,-2.216983918862497,0.712897189133512,-9.838312501023362,,,,,,,,,,
acc,1778672679.0,98.0,-2.2166804992010274,0.7194107846314075,-9.836942043125743,,,,,,,,,,
acc,1778672679.0,98.0,-2.2163798367793217,0.7255102178246783,-9.836577947361379,,,,,,,,,,
acc,1778672679.0,98.0,-2.215371971943656,0.7305248212695471,-9.835897691915912,,,,,,,,,,
acc,1778672679.0,98.0,-2.2147282285273513,0.7341094812796513,-9.834584672446677,,,,,,,,,,
acc,1778672679.0,98.0,-2.214445306750567,0.7369516322003135,-9.836052333862423,,,,,,,,,,
acc,1778672679.0,98.0,-2.2134550214503035,0.7394129841093111,-9.835376854851999,,,,,,,,,,
acc,1778672679.0,98.0,-2.21318366953837,0.7408225665061252,-9.837156785673212,,,,,,,,,,
acc,1778672679.0,98.0,-2.212204849031124,0.7422193397356701,-9.837891139247875,,,,,,,,,,
acc,1778672679.0,98.0,-2.2119448576613108,0.7436034201992577,-9.837873390758554,,,,,,,,,,
acc,1778672679.0,98.0,-2.211687228886291,0.7449749232403737,-9.83892070055294,,,,,,,,,,
acc,1778672679.0,98.0,-2.2107220069055473,0.7463339631542922,-9.838219156391398,,,,,,,,,,
acc,1778672679.0,98.0,-2.20976555609219,0.7462962881277285,-9.838233921603686,,,,,,,,,,
acc,1778672679.0,98.0,-2.2091727593311417,0.7476433204728041,-9.838213058199813,,,,,,,,,,
acc,1778672679.0,98.0,-2.208940321096572,0.7486231494889842,-9.83822787882609,,,,,,,,,,
acc,1778672679.0,98.0,-2.2087099950744586,0.7503040088153863,-9.838207070335615,,,,,,,,,,
acc,1778672679.0,98.0,-2.208801230180916,0.7529989961339743,-9.83719253399295,,,,,,,,,,
acc,1778672679.0,98.0,-2.2082171964972024,0.7577638016011792,-9.836861656660354,,,,,,,,,,
acc,1778672679.0,98.0,-2.2076384700418004,0.7631597389547099,-9.835149421342019,,,,,,,,,,
acc,1778672679.0,98.0,-2.206710040079741,0.7681871743024853,-9.835511549786224,,,,,,,,,,
acc,1778672679.0,98.0,-2.206499981014117,0.7731689243724046,-9.834840985364089,,,,,,,,,,
acc,1778672679.0,98.0,-2.2073212328929825,0.7773954702727925,-9.834176514489942,,,,,,,,,,
acc,1778672679.0,98.0,-2.2077800503441267,0.7812286462737004,-9.83351808178988,,,,,,,,,,
acc,1778672679.0,98.0,-2.207560267951911,0.784352549905019,-9.83183623036939,,,,,,,,,,
acc,1778672679.0,98.0,-2.2066325487916414,0.7874480660318132,-9.830879587136765,,,,,,,,,,
acc,1778672679.0,98.0,-2.2057132599903873,0.7898055186715174,-9.828547272718218,,,,,,,,,,
acc,1778672679.0,98.0,-2.2040923910147074,0.7917865771908023,-9.828294956315595,,,,,,,,,,
acc,1778672679.0,98.0,-2.2018118117004857,0.7941046049553019,-9.827370493281533,,,,,,,,,,
acc,1778672679.0,98.0,-2.1995519564345125,0.7971115022485878,-9.825389534741424,,,,,,,,,,
acc,1778672679.0,98.0,-2.1976676083628925,0.801475448599857,-9.823426577538154,,,,,,,,,,
acc,1778672679.0,98.0,-2.1964748140357124,0.8064741692932231,-9.821871923968752,,,,,,,,,,
acc,1778672680.0,99.0,-2.194937896486988,0.8121374085940097,-9.820650865764895,,,,,,,,,,
acc,1778672680.0,99.0,-2.191675609673749,0.8177491850055526,-9.818375998310565,,,,,,,,,,
acc,1778672680.0,99.0,-2.187768528500765,0.8222805554038894,-9.81722220260474,,,,,,,,,,
acc,1778672680.0,99.0,-2.184251914012202,0.826770748419582,-9.815723929318326,,,,,,,,,,
acc,1778672680.0,99.0,-2.1817966572679794,0.8318945775566268,-9.814239271111168,,,,,,,,,,
acc,1778672680.0,99.0,-2.1790087495712758,0.836297406243873,-9.813442534467642,,,,,,,,,,
acc,1778672680.0,99.0,-2.174861803123366,0.8389208903727712,-9.811978607722592,,,,,,,,,,
acc,1778672680.0,99.0,-2.171107512094298,0.8418400023146413,-9.81052798394028,,,,,,,,,,
acc,1778672680.0,99.0,-2.1677422992551807,0.8447325877691618,-9.809800475884973,,,,,,,,,,
acc,1778672680.0,99.0,-2.1644076666988936,0.8479538591495108,-9.809363552277045,,,,,,,,,,
acc,1778672680.0,99.0,-2.1614228134768863,0.8525302220050336,-9.808291654273456,,,,,,,,,,
acc,1778672680.0,99.0,-2.15814560720439,0.8570649986501848,-9.807832938080722,,,,,,,,,,
acc,1778672680.0,99.0,-2.1545432192303178,0.8622685096563877,-9.806029521063527,,,,,,,,,,
acc,1778672680.0,99.0,-2.1513285290194357,0.868134659929928,-9.805981826967416,,,,,,,,,,
acc,1778672680.0,99.0,-2.148143051254842,0.8732375790217564,-9.805899071870291,,,,,,,,,,
acc,1778672680.0,99.0,-2.1446315582547117,0.879678490575323,-9.806207534496078,,,,,,,,,,
acc,1778672680.0,99.0,-2.1418264139042584,0.8864158437593662,-9.806832661878241,,,,,,,,,,
acc,1778672680.0,99.0,-2.1383723212862846,0.8923820399642353,-9.807132640818784,,,,,,,,,,
acc,1778672680.0,99.0,-2.1345946453125912,0.8976195812469463,-9.807784855996893,,,,,,,,,,
acc,1778672680.0,99.0,-2.131880708064439,0.904548862822987,-9.808395649983275,,,,,,,,,,
acc,1778672680.0,99.0,-2.1291914328237875,0.9114151768435614,-9.808645931399072,,,,,,,,,,
acc,1778672680.0,99.0,-2.126526595481256,0.9185740667713662,-9.809994328476897,,,,,,,,,,
acc,1778672680.0,99.0,-2.123566497108703,0.9253129314071925,-9.811294978044275,,,,,,,,,,
acc,1778672680.0,99.0,-2.1206332976464886,0.9316355966895425,-9.812583808390906,,,,,,,,,,
acc,1778672680.0,99.0,-2.11840119165411,0.9382557690089307,-9.81421589816126,,,,,,,,,,
acc,1778672680.0,99.0,-2.1158344070343165,0.9441058493391682,-9.816898052386577,,,,,,,,,,
acc,1778672680.0,99.0,-2.1136459093524826,0.9492283300475872,-9.818845900064263,,,,,,,,,,
acc,1778672680.0,99.0,-2.111122336778357,0.9543042619255557,-9.822479887375719,,,,,,,,,,
acc,1778672680.0,99.0,-2.1089766584514504,0.9589791058459431,-9.825761384313154,,,,,,,,,,
acc,1778672680.0,99.0,-2.1072054403768985,0.9642859076231879,-9.829332529473438,,,,,,,,,,
acc,1778672680.0,99.0,-2.1050953555377045,0.9692250088146552,-9.833226185165556,,,,,,,,,,
acc,1778672680.0,99.0,-2.1023300064753294,0.9737642654776099,-9.83672949646348,,,,,,,,,,
acc,1778672680.0,99.0,-2.1002642254889796,0.9792916741742779,-9.83988150489103,,,,,,,,,,
acc,1778672680.0,99.0,-2.098217216590559,0.9844138923129934,-9.844069765879732,,,,,,,,,,
acc,1778672680.0,99.0,-2.0958338471041484,0.9888151251488762,-9.845770699961589,,,,,,,,,,
acc,1778672680.0,99.0,-2.092797696817256,0.9931763632698349,-9.847811139464472,,,,,,,,,,
acc,1778672680.0,99.0,-2.090144098596589,0.9974979701162163,-9.849868540641905,,,,,,,,,,
acc,1778672680.0,99.0,-2.0881890528935014,1.0021352678987616,-9.85258168472719,,,,,,,,,,
acc,1778672680.0,99.0,-2.087316677381884,1.007404864645142,-9.853850307591632,,,,,,,,,,
acc,1778672680.0,99.0,-2.086097258136711,1.0126265757221775,-9.856846736374266,,,,,,,,,,
acc,1778672680.0,99.0,-2.0848889199489653,1.018510769478138,-9.860135403798859,,,,,,,,,,
acc,1778672680.0,99.0,-2.0833365909836825,1.02434149262805,-9.860625442589626,,,,,,,,,,
acc,1778672680.0,99.0,-2.081443406231436,1.0287348590952443,-9.862566398156567,,,,,,,,,,
acc,1778672680.0,99.0,-2.078183053193601,1.0327333403028507,-9.86484467799458,,,,,,,,,,
acc,1778672680.0,99.0,-2.0749523274994632,1.03634052464219,-9.863872056587,,,,,,,,,,
acc,1778672680.0,99.0,-2.0710410267675625,1.0402698919606577,-9.866457948390298,,,,,,,,,,
acc,1778672680.0,99.0,-2.067165268641139,1.0441635524997317,-9.86653557124525,,,,,,,,,,
acc,1778672680.0,99.0,-2.0633247301375595,1.0483767927570227,-9.866612488729125,,,,,,,,,,
acc,1778672680.0,99.0,-2.059519091209235,1.0528712233611088,-9.867753611481797,,,,,,,,,,
acc,1778672680.0,99.0,-2.0550735959855007,1.0566503736400445,-9.865050716763093,,,,,,,,,,
acc,1778672680.0,99.0,-2.0509879743838986,1.0600402201809278,-9.864466688607063,,,,,,,,,,
acc,1778672680.0,99.0,-2.046939479461934,1.0633992626584845,-9.862894061268381,,,,,,,,,,
acc,1778672680.0,99.0,-2.0426082971366153,1.0667277809951274,-9.86094526825466,,,,,,,,,,
acc,1778672680.0,99.0,-2.0389909116359095,1.0700260525695313,-9.859724108219616,,,,,,,,,,
acc,1778672680.0,99.0,-2.0347319591854722,1.072939381159462,-9.857804121068488,,,,,,,,,,
acc,1778672680.0,99.0,-2.0308311851885135,1.0754712648062599,-9.854872171376813,,,,,,,,,,
acc,1778672680.0,99.0,-2.026965858126106,1.07833511190852,-9.852996274512886,,,,,,,,,,
acc,1778672680.0,99.0,-2.023490617866778,1.08081796372302,-9.850782453143767,,,,,,,,,,
acc,1778672680.0,99.0,-2.0214668237342623,1.0839881956114796,-9.848233778044536,,,,,,,,,,
acc,1778672680.0,99.0,-2.018751487094098,1.0878395430648553,-9.846098728587625,,,,,,,,,,
acc,1778672680.0,99.0,-2.0153508921055296,1.0913009307644048,-9.844302557329629,,,,,,,,,,
acc,1778672680.0,99.0,-2.0119811988428977,1.0961152359675468,-9.842167737100203,,,,,,,,,,
acc,1778672680.0,99.0,-2.0089970975470166,1.1012407548087495,-9.840052316307613,,,,,,,,,,
acc,1778672680.0,99.0,-2.0063950751935367,1.1070296302871703,-9.838666051672504,,,,,,,,,,
acc,1778672680.0,99.0,-2.0034617358559568,1.1106715967526857,-9.835872518234508,,,,,,,,,,
acc,1778672680.0,99.0,-1.9998451192242872,1.113215573169992,-9.83381430305197,,,,,,,,,,
acc,1778672680.0,99.0,-1.997326262272376,1.1157364320884515,-9.832129762219456,,,,,,,,,,
acc,1778672680.0,99.0,-1.995540227534893,1.119299278508214,-9.82904066310292,,,,,,,,,,
acc,1778672680.0,99.0,-1.9944448613619776,1.1242141203766234,-9.826334597039798,,,,,,,,,,
acc,1778672680.0,99.0,-1.9919750773868055,1.12872933839597,-9.825427949283538,,,,,,,,,,
acc,1778672680.0,99.0,-1.9888178037480293,1.1324935929878304,-9.822044779547987,,,,,,,,,,
acc,1778672680.0,99.0,-1.9860441917506944,1.1362236412328215,-9.819792751537843,,,,,,,,,,
acc,1778672680.0,99.0,-1.9836507459131563,1.1396003173269826,-9.81791614997558,,,,,,,,,,
acc,1778672680.0,99.0,-1.9819889826209989,1.1425913471310651,-9.81676653431737,,,,,,,,,,
acc,1778672680.0,99.0,-1.9785674922164151,1.1455551970000541,-9.815591871013389,,,,,,,,,,
acc,1778672680.0,99.0,-1.9769519211961983,1.148847075845893,-9.81577675916746,,,,,,,,,,
acc,1778672680.0,99.0,-1.9767354025922712,1.1513991170568714,-9.81496605202886,,,,,,,,,,
acc,1778672680.0,99.0,-1.9761658805201912,1.155312329873367,-9.815866550921355,,,,,,,,,,
acc,1778672680.0,99.0,-1.9742171714060426,1.161284287121592,-9.81608443739021,,,,,,,,,,
acc,1778672680.0,99.0,-1.9708663046762043,1.1654626429438482,-9.816300343892365,,,,,,,,,,
acc,1778672680.0,99.0,-1.9665164873254106,1.1703129623344246,-9.81757918323759,,,,,,,,,,
acc,1778672680.0,99.0,-1.9639455307483054,1.175119206154284,-9.816077667804407,,,,,,,,,,
acc,1778672680.0,99.0,-1.9617528987391455,1.1795268039332183,-9.816648597723443,,,,,,,,,,
acc,1778672680.0,99.0,-1.9585152967053805,1.1856336825354996,-9.816468912252304,,,,,,,,,,
acc,1778672680.0,99.0,-1.9556620771395312,1.193424409422006,-9.81700079249767,,,,,,,,,,
acc,1778672680.0,99.0,-1.952834785200397,1.200434407941547,-9.817527839468854,,,,,,,,,,
acc,1778672680.0,99.0,-1.9500331852793182,1.207061238048837,-9.817730629562858,,,,,,,,,,
acc,1778672680.0,99.0,-1.948321947764087,1.2115335449247842,-9.81825104439523,,,,,,,,,,
acc,1778672680.0,99.0,-1.946271289536806,1.2145453455508723,-9.81986712836221,,,,,,,,,,
acc,1778672680.0,99.0,-1.9438843040522735,1.2175297775028295,-9.820723090412502,,,,,,,,,,
acc,1778672680.0,99.0,-1.9422289423163774,1.2215519842333484,-9.82398505502729,,,,,,,,,,
acc,1778672680.0,99.0,-1.9398786902372622,1.226567050041446,-9.82412916748967,,,,,,,,,,
acc,1778672680.0,99.0,-1.9371948242720933,1.232956408920383,-9.826046797971415,,,,,,,,,,
acc,1778672680.0,99.0,-1.9352452798385926,1.2396071742724293,-9.826527136965645,,,,,,,,,,
acc,1778672680.0,99.0,-1.9333134511998353,1.2469074359949543,-9.828068014861476,,,,,,,,,,
acc,1778672680.0,99.0,-1.9327835486829708,1.25449632105241,-9.83030482341713,,,,,,,,,,
acc,1778672680.0,99.0,-1.9322584614674443,1.2606318825872416,-9.83074646912884,,,,,,,,,,
acc,1778672680.0,99.0,-1.9320931076694783,1.2673861187591402,-9.831858540006206,,,,,,,,,,
acc,1778672680.0,99.0,-1.932284227424477,1.2751438819950425,-9.831576134042034,,,,,,,,,,
acc,1778672680.0,99.0,-1.932118639489321,1.2838605496376763,-9.83126079997229,,,,,,,,,,
acc,1778672680.0,99.0,-1.9319545562757536,1.2914686073342885,-9.831303302344423,,,,,,,,,,
acc,1778672680.0,99.0,-1.9304076019258791,1.2993269970052916,-9.831700380357926,,,,,,,,,,
acc,1778672680.0,99.0,-1.9302590671518656,1.309208280433182,-9.831419411618143,,,,,,,,,,
acc,1778672680.0,99.0,-1.931496253393197,1.3189997712089763,-9.833980727336469,,,,,,,,,,
acc,1778672680.0,99.0,-1.9316927968410509,1.3287022852927282,-9.833998513347128,,,,,,,,,,
acc,1778672680.0,99.0,-1.931177621463018,1.3376421927910842,-9.835081032400954,,,,,,,,,,
acc,1778672680.0,99.0,-1.9303121656995297,1.345080996451814,-9.83441438134977,,,,,,,,,,
acc,1778672680.0,99.0,-1.9291350978815547,1.3521327351424512,-9.834783188542447,,,,,,,,,,
acc,1778672680.0,99.0,-1.928643164678267,1.3580554899271613,-9.83273487281797,,,,,,,,,,
acc,1778672680.0,99.0,-1.928155701742813,1.3639244237865384,-9.83311894193632,,,,,,,,,,
acc,1778672680.0,99.0,-1.9269982300289092,1.368355654583399,-9.832825082539085,,,,,,,,,,
acc,1778672680.0,99.0,-1.9254963145757928,1.3723916562980658,-9.83359879721183,,,,,,,,,,
acc,1778672680.0,99.0,-1.9246824856629834,1.3767459441351315,-9.832661642340831,,,,,,,,,,
acc,1778672680.0,99.0,-1.9249409467622147,1.383829406333545,-9.832336444124962,,,,,,,,,,
acc,1778672680.0,99.0,-1.9251970591883716,1.3908485000951245,-9.831694733552276,,,,,,,,,,
acc,1778672680.0,99.0,-1.9247409115059193,1.3981587721913846,-9.831733292706685,,,,,,,,,,
acc,1778672680.0,99.0,-1.9242889089027804,1.402633881516654,-9.830777586495445,,,,,,,,,,
acc,1778672680.0,99.0,-1.9231665753057348,1.4060034302669635,-9.831214936102677,,,,,,,,,,
acc,1778672680.0,99.0,-1.923083840760174,1.4093423594459045,-9.830263940277028,,,,,,,,,,
acc,1778672680.0,99.0,-1.921262525025122,1.4119765088967131,-9.829996024687864,,,,,,,,,,
acc,1778672680.0,99.0,-1.9191027980069912,1.4166810253858626,-9.82905610528672,,,,,,,,,,
acc,1778672680.0,99.0,-1.9180275913379345,1.4206328494117568,-9.829118642023111,,,,,,,,,,
acc,1778672680.0,99.0,-1.916607193388322,1.4241938008121355,-9.828186695526748,,,,,,,,,,
acc,1778672680.0,99.0,-1.9151997027973509,1.4280773551753083,-9.826908255925272,,,,,,,,,,
acc,1778672680.0,99.0,-1.9113557365359999,1.4315706572920899,-9.826990310467362,,,,,,,,,,
acc,1778672680.0,99.0,-1.907901662776882,1.436097118950071,-9.827107113734073,,,,,,,,,,
acc,1778672680.0,99.0,-1.90586334781575,1.4402274770873105,-9.826832390307473,,,,,,,,,,
acc,1778672681.0,100.0,-1.9045534880624346,1.4443203020727926,-9.83007433271552,,,,,,,,,,
acc,1778672681.0,100.0,-1.9015161891433825,1.4501152679362777,-9.827713836246513,,,,,,,,,,
acc,1778672681.0,100.0,-1.8985064905910427,1.455502612292508,-9.827824064732399,,,,,,,,,,
acc,1778672681.0,100.0,-1.8955241415967263,1.4625803340360906,-9.828252759019277,,,,,,,,,,
acc,1778672681.0,100.0,-1.893598302921766,1.4668250063687098,-9.826973719120165,,,,,,,,,,
acc,1778672681.0,100.0,-1.8923998973557492,1.466842499053545,-9.829930404111549,,,,,,,,,,
acc,1778672681.0,100.0,-1.8897925163952176,1.468954136628398,-9.832150288549455,,,,,,,,,,
acc,1778672681.0,100.0,-1.8879187618108548,1.4724309474733008,-9.832894631658837,,,,,,,,,,
acc,1778672681.0,100.0,-1.8881563290501155,1.4748467638530147,-9.835762018106587,,,,,,,,,,
acc,1778672681.0,100.0,-1.88803677565965,1.4768856655447837,-9.836509044375683,,,,,,,,,,
acc,1778672681.0,100.0,-1.8865339375713728,1.479580477814282,-9.839982521052281,,,,,,,,,,
acc,1778672681.0,100.0,-1.8857546887141052,1.482605763764508,-9.839626291384258,,,,,,,,,,
acc,1778672681.0,100.0,-1.8860119211838406,1.4849291201512316,-9.840657669915203,,,,,,,,,,
acc,1778672681.0,100.0,-1.8859118543266487,1.4854565366003052,-9.841324705257469,,,,,,,,,,
acc,1778672681.0,100.0,-1.885457734972805,1.486689093065401,-9.838152051534218,,,,,,,,,,
acc,1778672681.0,100.0,-1.883623371185664,1.4900047438309032,-9.842356025021893,,,,,,,,,,
acc,1778672681.0,100.0,-1.8810957438004838,1.4946746358870107,-9.841623265181248,,,,,,,,,,
acc,1778672681.0,100.0,-1.880010950759727,1.5000120246944904,-9.842671991286478,,,,,,,,,,
acc,1778672681.0,100.0,-1.880675348272179,1.5045909791801373,-9.846444426160138,,,,,,,,,,
acc,1778672681.0,100.0,-1.8795943754285789,1.5094832949627792,-9.845674514455787,,,,,,,,,,
acc,1778672681.0,100.0,-1.8785232255374449,1.5115624114529813,-9.846686426290079,,,,,,,,,,
acc,1778672681.0,100.0,-1.8767518766231692,1.5129127020059518,-9.846588753849291,,,,,,,,,,
acc,1778672681.0,100.0,-1.875351586017957,1.5166999969489097,-9.84553355753932,,,,,,,,,,
acc,1778672681.0,100.0,-1.8743189909490992,1.5204528762099752,-9.844132979047997,,,,,,,,,,
acc,1778672681.0,100.0,-1.8725858465080434,1.5276503182589682,-9.843100098708325,,,,,,,,,,
acc,1778672681.0,100.0,-1.8705134804968502,1.536166727191662,-9.842715539190602,,,,,,,,,,
acc,1778672681.0,100.0,-1.8684599463667872,1.5463450791779196,-9.843044406925355,,,,,,,,,,
acc,1778672681.0,100.0,-1.8681644149319134,1.556785900858871,-9.839501155223436,,,,,,,,,,
acc,1778672681.0,100.0,-1.867197130692556,1.5646825797718666,-9.841243603553277,,,,,,,,,,
acc,1778672681.0,100.0,-1.864818770896328,1.5697387674599503,-9.83846214307943,,,,,,,,,,
acc,1778672681.0,100.0,-1.8628169853962255,1.5754234381116874,-9.836380396464945,,,,,,,,,,
acc,1778672681.0,100.0,-1.8622532558013716,1.578287718378144,-9.836021405453494,,,,,,,,,,
acc,1778672681.0,100.0,-1.8613396870906496,1.5828653033680347,-9.833606867274124,,,,,,,,,,
acc,1778672681.0,100.0,-1.8611088584412268,1.5874012912014637,-9.83192421212624,,,,,,,,,,
acc,1778672681.0,100.0,-1.8615900509732553,1.5901567270436578,-9.830611809306056,,,,,,,,,,
acc,1778672681.0,100.0,-1.8599725762059114,1.5956558568219872,-9.82753650527977,,,,,,,,,,
acc,1778672681.0,100.0,-1.8583697996582942,1.601459986128512,-9.826938412494613,,,,,,,,,,
acc,1778672681.0,100.0,-1.8574915204585416,1.6065014398064588,-9.823541518253247,,,,,,,,,,
acc,1778672681.0,100.0,-1.856976184107191,1.6125619846706827,-9.819856024625702,,,,,,,,,,
acc,1778672681.0,100.0,-1.8564655306893705,1.6171830854967566,-9.817943354415272,,,,,,,,,,
acc,1778672681.0,100.0,-1.8548946231593926,1.6248858975685365,-9.815338132216743,,,,,,,,,,
acc,1778672681.0,100.0,-1.853692952486662,1.634613007726562,-9.815170355178678,,,,,,,,,,
acc,1778672681.0,100.0,-1.8538865725764042,1.6393531952721854,-9.81191589329012,,,,,,,,,,
acc,1778672681.0,100.0,-1.8540784332133298,1.6447602407579422,-9.811459747173949,,,,,,,,,,
acc,1778672681.0,100.0,-1.8528841793765294,1.6518574844745577,-9.811362707920658,,,,,,,,,,
acc,1778672681.0,100.0,-1.8503164068836906,1.6581803018611327,-9.81059211215411,,,,,,,,,,
acc,1778672681.0,100.0,-1.8480914446212713,1.6634162628030185,-9.812987726158283,,,,,,,,,,
acc,1778672681.0,100.0,-1.8473065662678672,1.6665103401497232,-9.813586734632096,,,,,,,,,,
acc,1778672681.0,100.0,-1.8465288202136176,1.668901871950903,-9.81694904183666,,,,,,,,,,
acc,1778672681.0,100.0,-1.8467875417625184,1.6761347081645492,-9.816802120604098,,,,,,,,,,
acc,1778672681.0,100.0,-1.8473988740693015,1.679823143908268,-9.82013520914342,,,,,,,,,,
acc,1778672681.0,100.0,-1.8455553856410165,1.6834780623219008,-9.819568869522637,,,,,,,,,,
acc,1778672681.0,100.0,-1.8433736874533004,1.6888391098607727,-9.820072579870821,,,,,,,,,,
acc,1778672681.0,100.0,-1.8422767091346925,1.691027737029809,-9.820926674728296,,,,,,,,,,
acc,1778672681.0,100.0,-1.840834737415919,1.6935159432716629,-9.820104673330567,,,,,,,,,,
acc,1778672681.0,100.0,-1.8407902400860037,1.6959815388366388,-9.822733312783175,,,,,,,,,,
acc,1778672681.0,100.0,-1.8393617761201277,1.699134661866881,-9.827077398206503,,,,,,,,,,
acc,1778672681.0,100.0,-1.8379462928052972,1.7012297319220269,-9.827903342756791,,,,,,,,,,
acc,1778672681.0,100.0,-1.8372536048586912,1.704690125683139,-9.83049660897586,,,,,,,,,,
acc,1778672681.0,100.0,-1.8369221732570784,1.707054179897656,-9.83022657912979,,,,,,,,,,
acc,1778672681.0,100.0,-1.8355288589549954,1.709751713415221,-9.832443771980762,,,,,,,,,,
acc,1778672681.0,100.0,-1.8341482058939107,1.712424734070242,-9.832475524513683,,,,,,,,,,
acc,1778672681.0,100.0,-1.8334900316907017,1.7129791700493873,-9.833571882970409,,,,,,,,,,
acc,1778672681.0,100.0,-1.8338672385087802,1.7170072333344948,-9.834693773027045,,,,,,,,,,
acc,1778672681.0,100.0,-1.834241017596029,1.7217086257182146,-9.836834868412433,,,,,,,,,,
acc,1778672681.0,100.0,-1.8328720673325238,1.7246279631272443,-9.837181680236373,,,,,,,,,,
acc,1778672681.0,100.0,-1.831870518701233,1.7275207721112713,-9.837915805772633,,,,,,,,,,
acc,1778672681.0,100.0,-1.8308780712816068,1.7300323228602272,-9.839708154666676,,,,,,,,,,
acc,1778672681.0,100.0,-1.829539680579467,1.7304267562446283,-9.840064350902166,,,,,,,,,,
acc,1778672681.0,100.0,-1.8292783464764266,1.7329118999100166,-9.840381815971396,,,,,,,,,,
acc,1778672681.0,100.0,-1.8296938254574626,1.7371137934902057,-9.843181165067028,,,,,,,,,,
acc,1778672681.0,100.0,-1.828366196164061,1.7388637419033228,-9.845245134335627,,,,,,,,,,
acc,1778672681.0,100.0,-1.8270506312224848,1.7405977882921042,-9.845905986147086,,,,,,,,,,
acc,1778672681.0,100.0,-1.8257470210022646,1.740221773528212,-9.848939109404451,,,,,,,,,,
acc,1778672681.0,100.0,-1.8244552568691588,1.7419434792933484,-9.850276326217307,,,,,,,,,,
acc,1778672681.0,100.0,-1.8217908602105333,1.7460633016478153,-9.850146031866954,,,,,,,,,,
acc,1778672681.0,100.0,-1.8184407426313152,1.7497907248166609,-9.848668044916288,,,,,,,,,,
acc,1778672681.0,100.0,-1.8151210680355907,1.7538392381613856,-9.848907327028023,,,,,,,,,,
acc,1778672681.0,100.0,-1.81289645423297,1.7564666002280602,-9.847121128935344,,,,,,,,,,
acc,1778672681.0,100.0,-1.810337094017566,1.7632586852497283,-9.846309564550157,,,,,,,,,,
acc,1778672681.0,100.0,-1.8084754293632175,1.767894755118026,-9.84550537496315,,,,,,,,,,
acc,1778672681.0,100.0,-1.8069856437005096,1.7742280291224743,-9.844460023542698,,,,,,,,,,
acc,1778672681.0,100.0,-1.8065742994602663,1.781178180999083,-9.841613840820976,,,,,,,,,,
acc,1778672681.0,100.0,-1.8047468278432404,1.7849414721799017,-9.84337258513824,,,,,,,,,,
acc,1778672681.0,100.0,-1.80293596271424,1.7904099076417872,-9.839506884039348,,,,,,,,,,
acc,1778672681.0,100.0,-1.8022064476120463,1.796538583330901,-9.839119482224621,,,,,,,,,,
acc,1778672681.0,100.0,-1.8014835617147331,1.8012271959391775,-9.839835998675763,,,,,,,,,,
acc,1778672681.0,100.0,-1.8007672447817844,1.8076125352142205,-9.834263093206754,,,,,,,,,,
acc,1778672681.0,100.0,-1.8004124079922936,1.8156791827646444,-9.83537870211933,,,,,,,,,,
acc,1778672681.0,100.0,-1.8000607956538892,1.8208683003916097,-9.835419278897417,,,,,,,,,,
acc,1778672681.0,100.0,-1.8007417785455546,1.8256552929157928,-9.833365183340478,,,,,,,,,,
acc,1778672681.0,100.0,-1.8028009442023318,1.8324930889826085,-9.834843922553548,,,,,,,,,,
acc,1778672681.0,100.0,-1.8034570269852486,1.8403336434890247,-9.8331500262128,,,,,,,,,,
acc,1778672681.0,100.0,-1.8037521860689816,1.8470380553511625,-9.835695615026003,,,,,,,,,,
acc,1778672681.0,100.0,-1.803015253836362,1.853326572423007,-9.834987875869727,,,,,,,,,,
acc,1778672681.0,100.0,-1.8033144273733372,1.8609778101781373,-9.832618233114555,,,,,,,,,,
acc,1778672681.0,100.0,-1.80467577671652,1.870298861894022,-9.835133160040039,,,,,,,,,,
acc,1778672681.0,100.0,-1.8060247552897022,1.8788252792684585,-9.832407226199582,,,,,,,,,,
acc,1778672681.0,100.0,-1.8056221427788217,1.885534883178616,-9.833504205264715,,,,,,,,,,
acc,1778672681.0,100.0,-1.8055781506465127,1.892893439554968,-9.831822483125983,,,,,,,,,,
acc,1778672681.0,100.0,-1.8065639583514006,1.8998301659280472,-9.834380135497227,,,,,,,,,,
acc,1778672681.0,100.0,-1.8068308843200096,1.9059939246560114,-9.833045415443854,,,,,,,,,,
acc,1778672681.0,100.0,-1.8070953846953959,1.9121016724552706,-9.83381712777156,,,,,,,,,,
acc,1778672681.0,100.0,-1.8077124433015372,1.9167695473623956,-9.832487523848288,,,,,,,,,,
acc,1778672681.0,100.0,-1.808323894610731,1.9217499755135132,-9.831205496580651,,,,,,,,,,
acc,1778672681.0,100.0,-1.8092847513592243,1.9242358713633743,-9.829544663129472,,,,,,,,,,
acc,1778672681.0,100.0,-1.8092074765977049,1.9260247483308381,-9.829602760263445,,,,,,,,,,
acc,1778672681.0,100.0,-1.8084209713921953,1.9274423986570153,-9.827637014591618,,,,,,,,,,
acc,1778672681.0,100.0,-1.8079965841369336,1.9302315375381214,-9.82771244679091,,,,,,,,,,
acc,1778672681.0,100.0,-1.8079310151287218,1.9368289674375863,-9.825053946010097,,,,,,,,,,
acc,1778672681.0,100.0,-1.8078660419551569,1.942656512929447,-9.826253239701241,,,,,,,,,,
acc,1778672681.0,100.0,-1.808476097490409,1.9480761318412219,-9.825666808165106,,,,,,,,,,
acc,1778672681.0,100.0,-1.8087256475857099,1.9541564436625747,-9.823346363808025,,,,,,,,,,
acc,1778672681.0,100.0,-1.8086534534775014,1.9612109029184657,-9.824880651040004,,,,,,,,,,
acc,1778672681.0,100.0,-1.808581915407137,1.9692661517567716,-9.822212388822223,,,,,,,,,,
acc,1778672681.0,100.0,-1.8067362003361618,1.973059603354271,-9.82414743678129,,,,,,,,,,
acc,1778672681.0,100.0,-1.8042328192458803,1.975789183264896,-9.822586235260637,,,,,,,,,,
acc,1778672681.0,100.0,-1.8024266250127452,1.9788489208857998,-9.823452991596204,,,,,,,,,,
acc,1778672681.0,100.0,-1.8003173674095823,1.9797865506662147,-9.825376766024737,,,,,,,,,,
acc,1778672681.0,100.0,-1.7971623824945742,1.9786213564941655,-9.826537631841338,,,,,,,,,,
acc,1778672681.0,100.0,-1.7954204382969345,1.9805904542492665,-9.82974675792959,,,,,,,,,,
acc,1778672681.0,100.0,-1.7947592178135015,1.9853458947673022,-9.829448047732985,,,,,,,,,,
acc,1778672681.0,100.0,-1.7941040059319817,1.9914424928726167,-9.830926888117045,,,,,,,,,,
acc,1778672681.0,100.0,-1.793809718918081,1.99641878683547,-9.831327386561188,,,,,,,,,,
acc,1778672681.0,100.0,-1.7920982408388306,1.9996105278163971,-9.830694845555634,,,,,,,,,,
acc,1778672681.0,100.0,-1.7897278769120377,2.00486756858302,-9.832197850475108,,,,,,,,,,
acc,1778672681.0,100.0,-1.7880534910948764,2.0097218670274755,-9.830527999379976,,,,,,,,,,
acc,1778672681.0,100.0,-1.786074844147175,2.0148870246575847,-9.82986721906889,,,,,,,,,,
acc,1778672682.0,101.0,-1.7823748447286638,2.018975845722981,-9.832052173940603,,,,,,,,,,
acc,1778672682.0,101.0,-1.7790279351344591,2.0233824728854537,-9.829318743118604,,,,,,,,,,
acc,1778672682.0,101.0,-1.7753919719516802,2.0284234947025466,-9.830443787642011,,,,,,,,,,
acc,1778672682.0,101.0,-1.7714340874898287,2.0344836024814366,-9.829819276022928,,,,,,,,,,
acc,1778672682.0,101.0,-1.7675121688707398,2.0408081177292674,-9.828880962921842,,,,,,,,,,
acc,1778672682.0,101.0,-1.7625609857578908,2.045016352021718,-9.830400450839443,,,,,,,,,,
acc,1778672682.0,101.0,-1.7580097655953588,2.0530199817858206,-9.828746932966274,,,,,,,,,,
acc,1778672682.0,101.0,-1.754209835642818,2.0637196233156136,-9.828847773544044,,,,,,,,,,
acc,1778672682.0,101.0,-1.7497345035348042,2.07329263566375,-9.826853394198904,,,,,,,,,,
acc,1778672682.0,101.0,-1.7442704393263206,2.0820687149961556,-9.826971441624405,,,,,,,,,,
acc,1778672682.0,101.0,-1.7388560278237604,2.0893806830447383,-9.828117816397706,,,,,,,,,,
acc,1778672682.0,101.0,-1.73487517966492,2.0962712353649446,-9.82996370654833,,,,,,,,,,
acc,1778672682.0,101.0,-1.7299011059623397,2.0992655360126613,-9.82969851927166,,,,,,,,,,
acc,1778672682.0,101.0,-1.7232328996510278,2.104681892383023,-9.831210577939055,,,,,,,,,,
acc,1778672682.0,101.0,-1.7172997174462155,2.111078438722552,-9.831608498452658,,,,,,,,,,
acc,1778672682.0,101.0,-1.7117754217519774,2.118126791405005,-9.830334459025906,,,,,,,,,,
acc,1778672682.0,101.0,-1.7063013260952828,2.1216324202425,-9.83038537917503,,,,,,,,,,
acc,1778672682.0,101.0,-1.6991376415997774,2.1233668602452025,-9.828412521760054,,,,,,,,,,
acc,1778672682.0,101.0,-1.6906546835702483,2.1264699100760214,-9.82848090681797,,,,,,,,,,
acc,1778672682.0,101.0,-1.6829232496327815,2.1319585330472814,-9.825815422964665,,,,,,,,,,
acc,1778672682.0,101.0,-1.6763269667216731,2.135657938356364,-9.824594026014577,,,,,,,,,,
acc,1778672682.0,101.0,-1.6690806925020973,2.140033668387622,-9.824697110269529,,,,,,,,,,
acc,1778672682.0,101.0,-1.6608708661179878,2.146108968256107,-9.823805342998389,,,,,,,,,,
acc,1778672682.0,101.0,-1.6534100818402737,2.1521290610362933,-9.823205652396053,,,,,,,,,,
acc,1778672682.0,101.0,-1.6467270273800785,2.159478819324832,-9.822611411264976,,,,,,,,,,
acc,1778672682.0,101.0,-1.6408146353990625,2.166442312841758,-9.822413035309447,,,,,,,,,,
acc,1778672682.0,101.0,-1.6338910666347697,2.1761112699756064,-9.82118706196597,,,,,,,,,,
acc,1778672682.0,101.0,-1.6273853841591481,2.1877866675241417,-9.821321105772608,,,,,,,,,,
acc,1778672682.0,101.0,-1.6219682197750747,2.1972616655623103,-9.821808893281473,,,,,,,,,,
acc,1778672682.0,101.0,-1.6176651854156445,2.203171888503506,-9.823002180838547,,,,,,,,,,
acc,1778672682.0,101.0,-1.613046282459301,2.205904700815293,-9.825959460971736,,,,,,,,,,
acc,1778672682.0,101.0,-1.6091792847517206,2.209287117964713,-9.825340195603392,,,,,,,,,,
acc,1778672682.0,101.0,-1.6067317979060651,2.213703693039676,-9.827956753369811,,,,,,,,,,
acc,1778672682.0,101.0,-1.604980980903793,2.2166602688073755,-9.827674309194068,,,,,,,,,,
acc,1778672682.0,101.0,-1.6018617119844416,2.221329319546641,-9.826755487707917,,,,,,,,,,
acc,1778672682.0,101.0,-1.5987707882920459,2.2270208363940793,-9.826874424822593,,,,,,,,,,
acc,1778672682.0,101.0,-1.5957079522496056,2.2340450045622546,-9.824897977580072,,,,,,,,,,
acc,1778672682.0,101.0,-1.5923179777573362,2.2399759430896076,-9.821910090530476,,,,,,,,,,
acc,1778672682.0,101.0,-1.5906981411261105,2.2451430537208914,-9.819304316598858,,,,,,,,,,
acc,1778672682.0,101.0,-1.5894479950370946,2.250973142744681,-9.819810430947989,,,,,,,,,,
acc,1778672682.0,101.0,-1.587179809142664,2.2563952820821296,-9.818608107831656,,,,,,,,,,
acc,1778672682.0,101.0,-1.5856066637582733,2.2593188843577727,-9.81777167216739,,,,,,,,,,
acc,1778672682.0,101.0,-1.5844027846261277,2.262570890319497,-9.817972246451573,,,,,,,,,,
acc,1778672682.0,101.0,-1.582180445254753,2.2657933448545524,-9.817816027226446,,,,,,,,,,
acc,1778672682.0,101.0,-1.5810077006425278,2.269696440052726,-9.815921894893139,,,,,,,,,,
acc,1778672682.0,101.0,-1.580200583785358,2.275303409067312,-9.819582449385234,,,,,,,,,,
acc,1778672682.0,101.0,-1.579400801310373,2.2794395615035588,-9.820086036302945,,,,,,,,,,
acc,1778672682.0,101.0,-1.5786082865690276,2.283893089928054,-9.820620541417044,,,,,,,,,,
acc,1778672682.0,101.0,-1.5771130317926132,2.288306148525632,-9.823279987325478,,,,,,,,,,
acc,1778672682.0,101.0,-1.5735725644942058,2.2930340759140675,-9.823075535927877,,,,,,,,,,
acc,1778672682.0,101.0,-1.5707387081886948,2.298428972612896,-9.825002740323828,,,,,,,,,,
acc,1778672682.0,101.0,-1.5682855653018242,2.3048042451954673,-9.826557470172057,,,,,,,,,,
acc,1778672682.0,101.0,-1.5672390853791656,2.31147654657264,-9.826287741476227,,,,,,,,,,
acc,1778672682.0,101.0,-1.565527676685718,2.315638950496994,-9.827440329118772,,,,,,,,,,
acc,1778672682.0,101.0,-1.5627669253853207,2.319089091804925,-9.826523633844184,,,,,,,,,,
acc,1778672682.0,101.0,-1.5610961558262246,2.3228273577056084,-9.827709572260158,,,,,,,,,,
acc,1778672682.0,101.0,-1.5601150070583831,2.327596547882139,-9.828849239530122,,,,,,,,,,
acc,1778672682.0,101.0,-1.558113374071401,2.330938028854199,-9.82965908307118,,,,,,,,,,
acc,1778672682.0,101.0,-1.5561299301993285,2.3328292800522052,-9.833940232834435,,,,,,,,,,
acc,1778672682.0,101.0,-1.554164510155165,2.3367976487432016,-9.838501955701952,,,,,,,,,,
acc,1778672682.0,101.0,-1.5511520466536979,2.3410849271832674,-9.84302222556489,,,,,,,,,,
acc,1778672682.0,101.0,-1.5471375577705004,2.3446233138954278,-9.845797580781985,,,,,,,,,,
acc,1778672682.0,101.0,-1.5435145199635814,2.346745175884608,-9.849896583431532,,,,,,,,,,
acc,1778672682.0,101.0,-1.5395694343383135,2.3495576888589422,-9.851225099496146,,,,,,,,,,
acc,1778672682.0,101.0,-1.536015169112267,2.354083976830238,-9.855310275894785,,,,,,,,,,
acc,1778672682.0,101.0,-1.5335226020367612,2.3585691337988,-9.858648397094932,,,,,,,,,,
acc,1778672682.0,101.0,-1.5306977143996081,2.364042942667263,-9.860926784275193,,,,,,,,,,
acc,1778672682.0,101.0,-1.5275790294908025,2.3712063429696224,-9.865953200179005,,,,,,,,,,
acc,1778672682.0,101.0,-1.525518084553865,2.3769202775516147,-9.86678083669256,,,,,,,,,,
acc,1778672682.0,101.0,-1.5220915058804874,2.3819078505453497,-9.870014723325466,,,,,,,,,,
acc,1778672682.0,101.0,-1.5179861232755554,2.3847557972245093,-9.870095519581428,,,,,,,,,,
acc,1778672682.0,101.0,-1.5139180468482156,2.388607273358759,-9.870850019907678,,,,,,,,,,
acc,1778672682.0,101.0,-1.510241908454159,2.39661234861335,-9.870177798711437,,,,,,,,,,
acc,1778672682.0,101.0,-1.5055697755845596,2.4048996515078143,-9.871286522217831,,,,,,,,,,
acc,1778672682.0,101.0,-1.500230166393387,2.4127566756766337,-9.868587028721665,,,,,,,,,,
acc,1778672682.0,101.0,-1.4945841081048727,2.4208972728459286,-9.86829034250021,,,,,,,,,,
acc,1778672682.0,101.0,-1.4883149271365754,2.428963895286779,-9.868031846667396,,,,,,,,,,
acc,1778672682.0,101.0,-1.4824221824945212,2.431703713705773,-9.863587092721422,,,,,,,,,,
acc,1778672682.0,101.0,-1.4769379478099494,2.4337441967405384,-9.86237743027587,,,,,,,,,,
acc,1778672682.0,101.0,-1.4694092546590007,2.4364405759013597,-9.86043333320297,,,,,,,,,,
acc,1778672682.0,101.0,-1.4626588993297596,2.440532317966358,-9.856057627996448,,,,,,,,,,
acc,1778672682.0,101.0,-1.4569992945480565,2.44668118135695,-9.855164856441707,,,,,,,,,,
acc,1778672682.0,101.0,-1.452456013786172,2.450679865629019,-9.852966824519353,,,,,,,,,,
acc,1778672682.0,101.0,-1.4472440858062139,2.452902871531344,-9.850398301194145,,,,,,,,,,
acc,1778672682.0,101.0,-1.4417245575594164,2.456490047585497,-9.848918021892565,,,,,,,,,,
acc,1778672682.0,101.0,-1.4359357186118415,2.460044626476507,-9.847841659314787,,,,,,,,,,
acc,1778672682.0,101.0,-1.4315838454670238,2.464276837055632,-9.844254814661296,,,,,,,,,,
acc,1778672682.0,101.0,-1.427945956669444,2.4698549598665704,-9.84318532384292,,,,,,,,,,
acc,1778672682.0,101.0,-1.4233117258178924,2.4753823935068477,-9.84180608422046,,,,,,,,,,
acc,1778672682.0,101.0,-1.4187196068606895,2.482953902144567,-9.840048921803945,,,,,,,,,,
acc,1778672682.0,101.0,-1.4155535789464275,2.488362303891449,-9.841076459701954,,,,,,,,,,
acc,1778672682.0,101.0,-1.4117418919751188,2.4919822260596454,-9.838615985760862,,,,,,,,,,
acc,1778672682.0,101.0,-1.4072549096924578,2.497663557044557,-9.837881708812148,,,,,,,,,,
acc,1778672682.0,101.0,-1.4007143976879244,2.500843986582195,-9.835130798598263,,,,,,,,,,
acc,1778672682.0,101.0,-1.393203920166768,2.5032855824823614,-9.831339991874085,,,,,,,,,,
acc,1778672682.0,101.0,-1.387501024076109,2.508864198309638,-9.828648527143361,,,,,,,,,,
acc,1778672682.0,101.0,-1.3825243892639671,2.5140371496246683,-9.827401385395403,,,,,,,,,,
acc,1778672682.0,101.0,-1.3769185395421863,2.518453160982408,-9.827514453148156,,,,,,,,,,
acc,1778672682.0,101.0,-1.3727480018609954,2.5193503780642246,-9.82663258774843,,,,,,,,,,
acc,1778672682.0,101.0,-1.3713840951665879,2.521623803835341,-9.828491974357322,,,,,,,,,,
acc,1778672682.0,101.0,-1.36935815329157,2.524231541534706,-9.828950093552285,,,,,,,,,,
acc,1778672682.0,101.0,-1.3666406797065946,2.5208876425817435,-9.829723517169318,,,,,,,,,,
acc,1778672682.0,101.0,-1.3643028710399498,2.521052795470895,-9.83052541602652,,,,,,,,,,
acc,1778672682.0,101.0,-1.3630157064127704,2.521571418454415,-9.829864659199746,,,,,,,,,,
acc,1778672682.0,101.0,-1.3617402384279038,2.524179632186485,-9.830629772032669,,,,,,,,,,
acc,1778672682.0,101.0,-1.3594469607464328,2.5274740773566697,-9.82996806690855,,,,,,,,,,
acc,1778672682.0,101.0,-1.3564645897595908,2.5307385854496913,-9.829063905182949,,,,,,,,,,
acc,1778672682.0,101.0,-1.3524799199389776,2.5332634958723013,-9.827812988838152,,,,,,,,,,
acc,1778672682.0,101.0,-1.3492413919975828,2.5368303564958126,-9.824763118337183,,,,,,,,,,
acc,1778672682.0,101.0,-1.3456773221444398,2.540364804565415,-9.824154724303346,,,,,,,,,,
acc,1778672682.0,101.0,-1.3421456394850868,2.544186611119789,-9.824261800552566,,,,,,,,,,
acc,1778672682.0,101.0,-1.3393204879881229,2.550777915486274,-9.824403398145147,,,,,,,,,,
acc,1778672682.0,101.0,-1.3386153125784224,2.557309323761887,-9.823549803331256,,,,,,,,,,
acc,1778672682.0,101.0,-1.3375615743335374,2.56133211491021,-9.822703965251037,,,,,,,,,,
acc,1778672682.0,101.0,-1.3354880115037024,2.566702721311976,-9.821475348196726,,,,,,,,,,
acc,1778672682.0,101.0,-1.3316939587400758,2.57273445690885,-9.818163592208696,,,,,,,,,,
acc,1778672682.0,101.0,-1.3296737157414467,2.5762621159731847,-9.816301795874294,,,,,,,,,,
acc,1778672682.0,101.0,-1.3290562018799488,2.581497051398386,-9.814776394440926,,,,,,,,,,
acc,1778672682.0,101.0,-1.3270599285413485,2.5863649488300804,-9.813974778088703,,,,,,,,,,
acc,1778672682.0,101.0,-1.3233424629289308,2.5901237075106933,-9.81385488441001,,,,,,,,,,
acc,1778672682.0,101.0,-1.322427511172614,2.5928189097840106,-9.81338111844763,,,,,,,,,,
acc,1778672682.0,101.0,-1.3212014062948807,2.5930403550631835,-9.81358609593708,,,,,,,,,,
acc,1778672682.0,101.0,-1.3192765105658661,2.595354082497132,-9.81173040158215,,,,,,,,,,
acc,1778672682.0,101.0,-1.3170141357683511,2.5980017556323123,-9.810282035398606,,,,,,,,,,
acc,1778672682.0,101.0,-1.314772319482287,2.602009730820202,-9.809556763353273,,,,,,,,,,
acc,1778672682.0,101.0,-1.3111665130664534,2.606336255846567,-9.808483111093784,,,,,,,,,,
acc,1778672682.0,101.0,-1.3089778349334042,2.611652865193156,-9.806709282625151,,,,,,,,,,
acc,1778672682.0,101.0,-1.307873949116293,2.617986065274442,-9.807684811553564,,,,,,,,,,
acc,1778672683.0,102.0,-1.3036208965073006,2.622167411148843,-9.806983140839108,,,,,,,,,,
acc,1778672683.0,102.0,-1.3015007864313584,2.6266657314183806,-9.80593287544199,,,,,,,,,,
acc,1778672683.0,102.0,-1.2997549129488284,2.6325075366549573,-9.806950963136433,,,,,,,,,,
acc,1778672683.0,102.0,-1.2976699335980517,2.638296256602611,-9.806255961003671,,,,,,,,,,
acc,1778672683.0,102.0,-1.2956039007418503,2.6450617737036666,-9.806525685780084,,,,,,,,,,
acc,1778672683.0,102.0,-1.2939116130718837,2.650381449795961,-9.808567786574221,,,,,,,,,,
acc,1778672683.0,102.0,-1.293264103502026,2.6570371470816583,-9.808497026972164,,,,,,,,,,
acc,1778672683.0,102.0,-1.2923030105268776,2.6626029630803747,-9.81123114655224,,,,,,,,,,
acc,1778672683.0,102.0,-1.2902857476400018,2.667053307333564,-9.80907738453348,,,,,,,,,,
acc,1778672683.0,102.0,-1.286192521441178,2.6694044015106293,-9.809321470645658,,,,,,,,,,
acc,1778672683.0,102.0,-1.282846423587576,2.672053607472107,-9.808604927384799,,,,,,,,,,
acc,1778672683.0,102.0,-1.281625035730815,2.674678739734085,-9.80643952673437,,,,,,,,,,
acc,1778672683.0,102.0,-1.2800597759327454,2.6755406752867854,-9.80780797219236,,,,,,,,,,
acc,1778672683.0,102.0,-1.2764144363214451,2.677814643582112,-9.808773517177016,,,,,,,,,,
acc,1778672683.0,102.0,-1.2731571932743222,2.6800679480143055,-9.808061953244858,,,,,,,,,,
acc,1778672683.0,102.0,-1.2692196166086132,2.6843595855433176,-9.808315266720975,,,,,,,,,,
acc,1778672683.0,102.0,-1.2649983538305702,2.6889671861447844,-9.807607866973854,,,,,,,,,,
acc,1778672683.0,102.0,-1.2604604793878837,2.694597820340679,-9.807900801154398,,,,,,,,,,
acc,1778672683.0,102.0,-1.2566382795101625,2.699822317327078,-9.80719716771299,,,,,,,,,,
acc,1778672683.0,102.0,-1.2545901451726298,2.70428940595494,-9.806748397892406,,,,,,,,,,
acc,1778672683.0,102.0,-1.2532705551487011,2.707331530623558,-9.808469007456367,,,,,,,,,,
acc,1778672683.0,102.0,-1.2509335563724877,2.7093166110376807,-9.808718621974771,,,,,,,,,,
acc,1778672683.0,102.0,-1.2461685198208783,2.710928690978851,-9.808610997350728,,,,,,,,,,
acc,1778672683.0,102.0,-1.2418017546736917,2.712881083501334,-9.806836006763092,,,,,,,,,,
acc,1778672683.0,102.0,-1.2374746709228863,2.716200105273501,-9.805751584034175,,,,,,,,,,
acc,1778672683.0,102.0,-1.2328319371172292,2.722257699369395,-9.80396708296927,,,,,,,,,,
acc,1778672683.0,102.0,-1.2285863633340703,2.727585818085764,-9.802908730546024,,,,,,,,,,
acc,1778672683.0,102.0,-1.222994998755278,2.7311261867703007,-9.80249893034466,,,,,,,,,,
acc,1778672683.0,102.0,-1.2177739201775195,2.7342794127760515,-9.80244782491507,,,,,,,,,,
acc,1778672683.0,102.0,-1.2136651806683487,2.7345997488041265,-9.801083810785247,,,,,,,,,,
acc,1778672683.0,102.0,-1.2085288834326509,2.735627106529226,-9.799022259005067,,,,,,,,,,
acc,1778672683.0,102.0,-1.2037942222111455,2.739768832105512,-9.797689373464491,,,,,,,,,,
acc,1778672683.0,102.0,-1.1980731854599032,2.740749217658717,-9.798036944001536,,,,,,,,,,
acc,1778672683.0,102.0,-1.1930785748322805,2.74310506522262,-9.797706917842582,,,,,,,,,,
acc,1778672683.0,102.0,-1.1891942453276947,2.7437001721922587,-9.794966119719184,,,,,,,,,,
acc,1778672683.0,102.0,-1.18601965153497,2.744289871342896,-9.795693398611773,,,,,,,,,,
acc,1778672683.0,102.0,-1.181134573030388,2.7438448026806483,-9.795100695518721,,,,,,,,,,
acc,1778672683.0,102.0,-1.1762938859070313,2.7447881493278126,-9.79376795140581,,,,,,,,,,
acc,1778672683.0,102.0,-1.1729170520434018,2.7460778945149045,-9.79631644870873,,,,,,,,,,
acc,1778672683.0,102.0,-1.1702453331216616,2.747355919609837,-9.793233315109207,,,,,,,,,,
acc,1778672683.0,102.0,-1.1669234632903036,2.7517460347066347,-9.794331302009576,,,,,,,,,,
acc,1778672683.0,102.0,-1.1618924379777125,2.7515526873619427,-9.795454814798829,,,,,,,,,,
acc,1778672683.0,102.0,-1.1569071302850842,2.754165324082169,-9.793053949260004,,,,,,,,,,
acc,1778672683.0,102.0,-1.1550908283619172,2.7571091902734888,-9.79312416603426,,,,,,,,,,
acc,1778672683.0,102.0,-1.1519066696025841,2.7537434036037753,-9.793868183013572,,,,,,,,,,
acc,1778672683.0,102.0,-1.1470121039626227,2.755306732935487,-9.792937095045293,,,,,,,,,,
acc,1778672683.0,102.0,-1.1442208250983261,2.7620738632134216,-9.791269041007208,,,,,,,,,,
acc,1778672683.0,102.0,-1.1418098727431858,2.7656203016948666,-9.795508581128425,,,,,,,,,,
acc,1778672683.0,102.0,-1.1394208290441636,2.769489474975031,-9.791403388685032,,,,,,,,,,
acc,1778672683.0,102.0,-1.1381183984095289,2.7733234885446874,-9.79255350782579,,,,,,,,,,
acc,1778672683.0,102.0,-1.1357628996462241,2.775738290996021,-9.791243910358464,,,,,,,,,,
acc,1778672683.0,102.0,-1.1334288056246087,2.782319756891621,-9.788881309888474,,,,,,,,,,
acc,1778672683.0,102.0,-1.1318258544712736,2.787421550831297,-9.791083747554696,,,,,,,,,,
acc,1778672683.0,102.0,-1.1302374695558453,2.792476984066767,-9.790781402602462,,,,,,,,,,
acc,1778672683.0,102.0,-1.130402860282577,2.7912390707013066,-9.791227241181938,,,,,,,,,,
acc,1778672683.0,102.0,-1.1302117772202243,2.78894750292992,-9.790284657455961,,,,,,,,,,
acc,1778672683.0,102.0,-1.1289930305078844,2.785292397128768,-9.792509837069412,,,,,,,,,,
acc,1778672683.0,102.0,-1.1274303878540133,2.782025467551076,-9.790135732949205,,,,,,,,,,
acc,1778672683.0,102.0,-1.1258819451491604,2.7822668994644606,-9.790232467956963,,,,,,,,,,
acc,1778672683.0,102.0,-1.1260869151260104,2.7853103736303706,-9.791393227415517,,,,,,,,,,
acc,1778672683.0,102.0,-1.1262900225124506,2.790065524009783,-9.79325337152737,,,,,,,,,,
acc,1778672683.0,102.0,-1.1275206842821397,2.7961618345915693,-9.7947061470328,,,,,,,,,,
acc,1778672683.0,102.0,-1.128065724584406,2.800463405389932,-9.795790750106374,,,,,,,,,,
acc,1778672683.0,102.0,-1.1271859467616752,2.805400325496419,-9.796191068055156,,,,,,,,,,
acc,1778672683.0,102.0,-1.1256397253267776,2.808553050447583,-9.796232777398863,,,,,,,,,,
acc,1778672683.0,102.0,-1.1241075546190171,2.8057846807443143,-9.796984040358359,,,,,,,,,,
acc,1778672683.0,102.0,-1.1236187070054993,2.804070876732957,-9.798047943901535,,,,,,,,,,
acc,1778672683.0,102.0,-1.1234892724783057,2.804821911611334,-9.80187092142413,,,,,,,,,,
acc,1778672683.0,102.0,-1.1226510815061659,2.8059210835059245,-9.800831617110065,,,,,,,,,,
acc,1778672683.0,102.0,-1.1221754690644208,2.8083946379828233,-9.80430983159713,,,,,,,,,,
acc,1778672683.0,102.0,-1.120674778530473,2.8080414787522052,-9.805307164666385,,,,,,,,,,
acc,1778672683.0,102.0,-1.1191877249780924,2.806307166906614,-9.806295434832679,,,,,,,,,,
acc,1778672683.0,102.0,-1.118388622760518,2.8018198731742885,-9.81039842804278,,,,,,,,,,
acc,1778672683.0,102.0,-1.1172773146812043,2.797018394324549,-9.81279580191325,,,,,,,,,,
acc,1778672683.0,102.0,-1.115111201716461,2.794674309043851,-9.814070992662247,,,,,,,,,,
acc,1778672683.0,102.0,-1.1129647725185585,2.797605035369779,-9.817109431706559,,,,,,,,,,
acc,1778672683.0,102.0,-1.110837848218396,2.8029228916513573,-9.819445821762455,,,,,,,,,,
acc,1778672683.0,102.0,-1.108375289798713,2.805778661971106,-9.821370515499497,,,,,,,,,,
acc,1778672683.0,102.0,-1.1073549742550848,2.8113772142427282,-9.824626595828152,,,,,,,,,,
acc,1778672683.0,102.0,-1.1059889595986236,2.8158954916508976,-9.825084345889215,,,,,,,,,,
acc,1778672683.0,102.0,-1.104280396331919,2.816539074624975,-9.827703228575137,,,,,,,,,,
acc,1778672683.0,102.0,-1.1025873590149307,2.81717680927193,-9.829907847892784,,,,,,,,,,
acc,1778672683.0,102.0,-1.1001997739269638,2.816388883467814,-9.83035310084893,,,,,,,,,,
acc,1778672683.0,102.0,-1.0985438177877669,2.819122286465302,-9.832178678638707,,,,,,,,,,
acc,1778672683.0,102.0,-1.09619297691583,2.823215212474714,-9.83327773451744,,,,,,,,,,
acc,1778672683.0,102.0,-1.0942184602322145,2.824147241911137,-9.83234349738824,,,,,,,,,,
acc,1778672683.0,102.0,-1.0922618862536413,2.8268101436369344,-9.83379602639697,,,,,,,,,,
acc,1778672683.0,102.0,-1.0896486627451134,2.8308332090293993,-9.832466614257484,,,,,,,,,,
acc,1778672683.0,102.0,-1.0873786533721275,2.8358491163204143,-9.83391802448625,,,,,,,,,,
acc,1778672683.0,102.0,-1.0858392045211696,2.842558785140264,-9.833581409421251,,,,,,,,,,
acc,1778672683.0,102.0,-1.0846687066274785,2.8492074822754687,-9.835732612899902,,,,,,,,,,
acc,1778672683.0,102.0,-1.0838638160700282,2.851962125559369,-9.836089441054304,,,,,,,,,,
acc,1778672683.0,102.0,-1.0813269069818943,2.8533073661118755,-9.835413626614303,,,,,,,,,,
acc,1778672683.0,102.0,-1.0784580802753625,2.851871640461235,-9.83470844994613,,,,,,,,,,
acc,1778672683.0,102.0,-1.0749053903580128,2.8525432649899987,-9.83340624084817,,,,,,,,,,
acc,1778672683.0,102.0,-1.0727693551317021,2.854593157282645,-9.833429247292251,,,,,,,,,,
acc,1778672683.0,102.0,-1.0713626629858695,2.8562694510610447,-9.832742102952272,,,,,,,,,,
acc,1778672683.0,102.0,-1.070678686279492,2.86453289016858,-9.833516571502994,,,,,,,,,,
acc,1778672683.0,102.0,-1.0689360214687909,2.8695975346764504,-9.83218969880869,,,,,,,,,,
acc,1778672683.0,102.0,-1.066854230719704,2.8739062234279777,-9.831265348809888,,,,,,,,,,
acc,1778672683.0,102.0,-1.0662112227582288,2.8771463584836376,-9.830313895059763,,,,,,,,,,
acc,1778672683.0,102.0,-1.065219087037997,2.8793276499380323,-9.829406590747967,,,,,,,,,,
acc,1778672683.0,102.0,-1.0628516051704022,2.8832284523785185,-9.829501436923254,,,,,,,,,,
acc,1778672683.0,102.0,-1.060150666075936,2.8881232077377703,-9.829559926858359,,,,,,,,,,
acc,1778672683.0,102.0,-1.0581487090612458,2.8950677873235473,-9.829298408786638,,,,,,,,,,
acc,1778672683.0,102.0,-1.0568748767398284,2.90297866060597,-9.829749199799819,,,,,,,,,,
acc,1778672683.0,102.0,-1.0556126199081495,2.9087233431508075,-9.828847026951635,,,,,,,,,,
acc,1778672683.0,102.0,-1.053332433330389,2.9123570228786937,-9.826178216143397,,,,,,,,,,
acc,1778672683.0,102.0,-1.0528122998039968,2.9152477502242986,-9.825592466369157,,,,,,,,,,
acc,1778672683.0,102.0,-1.0526163602161782,2.9205614744484563,-9.824018133695965,,,,,,,,,,
acc,1778672683.0,102.0,-1.0506828684764862,2.925826912128778,-9.827285649112842,,,,,,,,,,
acc,1778672683.0,102.0,-1.048766946642515,2.9317189403259665,-9.826015397668474,,,,,,,,,,
acc,1778672683.0,102.0,-1.0479333294617654,2.936528026803741,-9.825395624001086,,,,,,,,,,
acc,1778672683.0,102.0,-1.0463973548409975,2.938844138047224,-9.826591812791227,,,,,,,,,,
acc,1778672683.0,102.0,-1.0445203760596407,2.93904490801349,-9.82319806843065,,,,,,,,,,
acc,1778672683.0,102.0,-1.0430154154164701,2.9382144444205647,-9.825124159345032,,,,,,,,,,
acc,1778672683.0,102.0,-1.042589034052705,2.9418996018632466,-9.824512484483037,,,,,,,,,,
acc,1778672683.0,102.0,-1.042166527275114,2.944876833498512,-9.824616309716028,,,,,,,,,,
acc,1778672683.0,102.0,-1.0417478598747985,2.9467621162122497,-9.826139056743095,,,,,,,,,,
acc,1778672683.0,102.0,-1.0409780261021737,2.947600857967482,-9.823459359273267,,,,,,,,,,
acc,1778672683.0,102.0,-1.0398602261415664,2.9487869488215064,-9.825347581441825,,,,,,,,,,
acc,1778672683.0,102.0,-1.0377231837354437,2.949962261504592,-9.822710570576998,,,,,,,,,,
acc,1778672683.0,102.0,-1.0356055609279786,2.953540664915489,-9.82464109145147,,,,,,,,,,
acc,1778672683.0,102.0,-1.0335071812506034,2.961630119740164,-9.82307540405325,,,,,,,,,,
acc,1778672684.0,103.0,-1.0321022990254065,2.9692911028012783,-9.823937715228057,,,,,,,,,,
acc,1778672684.0,103.0,-1.0289708504766621,2.976172527732992,-9.824401725241911,,,,,,,,,,
acc,1778672684.0,103.0,-1.0258678578321418,2.9829914202086445,-9.820317949874514,,,,,,,,,,
acc,1778672684.0,103.0,-1.0217636624614421,2.9845303504238827,-9.821915251049298,,,,,,,,,,
acc,1778672684.0,103.0,-1.018051724252791,2.982931592578216,-9.820729295511716,,,,,,,,,,
acc,1778672684.0,103.0,-1.0143735169378472,2.9817023246387597,-9.819873584328999,,,,,,,,,,
acc,1778672684.0,103.0,-1.010728733999334,2.9794193328187673,-9.822539817922273,,,,,,,,,,
acc,1778672684.0,103.0,-1.0077915099795265,2.980671255670473,-9.821951627326719,,,,,,,,,,
acc,1778672684.0,103.0,-1.0055909095530047,2.9829412021744806,-9.822788646968325,,,,,,,,,,
acc,1778672684.0,103.0,-1.0013160027432313,2.9879592540914293,-9.822908136950208,,,,,,,,,,
acc,1778672684.0,103.0,-0.9967249808268915,2.9946710389612945,-9.823026541110169,,,,,,,,,,
acc,1778672684.0,103.0,-0.9928856107930768,2.9999374710965645,-9.821085060132761,,,,,,,,,,
acc,1778672684.0,103.0,-0.9894360914169935,3.004126646390075,-9.821220030842829,,,,,,,,,,
acc,1778672684.0,103.0,-0.9866923565727213,3.006893383162491,-9.818975498459455,,,,,,,,,,
acc,1778672684.0,103.0,-0.9836185926513634,3.010664378264479,-9.821294931309177,,,,,,,,,,
acc,1778672684.0,103.0,-0.9802532839453777,3.0136911731805447,-9.822492889298534,,,,,,,,,,
acc,1778672684.0,103.0,-0.9783029271713342,3.0177553666890704,-9.81988181941448,,,,,,,,,,
acc,1778672684.0,103.0,-0.9770447318320676,3.019333353908501,-9.822157512953796,,,,,,,,,,
acc,1778672684.0,103.0,-0.9751235316129561,3.018483230784846,-9.820933861589044,,,,,,,,,,
acc,1778672684.0,103.0,-0.9728648187442072,3.0221489073453385,-9.820076291486238,,,,,,,,,,
acc,1778672684.0,103.0,-0.970981601970975,3.024751873350453,-9.8213208177834,,,,,,,,,,
acc,1778672684.0,103.0,-0.9691154982479147,3.026266282350306,-9.820495234803428,,,,,,,,,,
acc,1778672684.0,103.0,-0.9679407903405465,3.0284768623411,-9.819925623616268,,,,,,,,,,
acc,1778672684.0,103.0,-0.9671317189391837,3.0310223253476902,-9.819751653784941,,,,,,,,,,
acc,1778672684.0,103.0,-0.9653005996334354,3.0342190865684073,-9.821354100970202,,,,,,,,,,
acc,1778672684.0,103.0,-0.9638410908216055,3.036002436558557,-9.820528215541334,,,,,,,,,,
acc,1778672684.0,103.0,-0.9630692739543709,3.039863884544064,-9.820668246374886,,,,,,,,,,
acc,1778672684.0,103.0,-0.9623044706933019,3.044045204793406,-9.820487528228282,,,,,,,,,,
acc,1778672684.0,103.0,-0.9608721881177743,3.046449196128097,-9.819634014018208,,,,,,,,,,
acc,1778672684.0,103.0,-0.9580330556231114,3.049150809476006,-9.818788255809304,,,,,,,,,,
acc,1778672684.0,103.0,-0.9552197227164265,3.0507984728437396,-9.81656582130063,,,,,,,,,,
acc,1778672684.0,103.0,-0.9534968493608509,3.0517212310334654,-9.813298678865728,,,,,,,,,,
acc,1778672684.0,103.0,-0.9514346611321229,3.050576794810065,-9.812545994166893,,,,,,,,,,
acc,1778672684.0,103.0,-0.947296917836675,3.0508271291444573,-9.812048618824146,,,,,,,,,,
acc,1778672684.0,103.0,-0.9431967747843931,3.0559382249278677,-9.811555763199637,,,,,,,,,,
acc,1778672684.0,103.0,-0.9426125556600543,3.065191482564577,-9.814901031533168,,,,,,,,,,
acc,1778672684.0,103.0,-0.9430985489100251,3.0698170857167764,-9.816192586130205,,,,,,,,,,
acc,1778672684.0,103.0,-0.9425152223777358,3.076494958918384,-9.819247240321483,,,,,,,,,,
acc,1778672684.0,103.0,-0.9405528257057684,3.0841770437740776,-9.818404996778439,,,,,,,,,,
acc,1778672684.0,103.0,-0.9382532998291523,3.0851514480664477,-9.818209350732687,,,,,,,,,,
acc,1778672684.0,103.0,-0.9363296318343244,3.0868269304468834,-9.817412042082328,,,,,,,,,,
acc,1778672684.0,103.0,-0.9358078153836934,3.087777254854123,-9.814847142556754,,,,,,,,,,
acc,1778672684.0,103.0,-0.9356457116116118,3.091168217935462,-9.819262890440198,,,,,,,,,,
acc,1778672684.0,103.0,-0.9347751482647715,3.0948833286417474,-9.819094942956516,,,,,,,,,,
acc,1778672684.0,103.0,-0.9346224284810147,3.1006234797206127,-9.819247998135427,,,,,,,,,,
acc,1778672684.0,103.0,-0.9351810291170234,3.1066664401167046,-9.820855022108885,,,,,,,,,,
acc,1778672684.0,103.0,-0.9336402501298701,3.109885754570203,-9.821737510200125,,,,,,,,,,
acc,1778672684.0,103.0,-0.9303741397319107,3.113750243856908,-9.821192113732431,,,,,,,,,,
acc,1778672684.0,103.0,-0.929906441658185,3.1186445194919106,-9.8227459768998,,,,,,,,,,
acc,1778672684.0,103.0,-0.9311823263029151,3.1234943201701926,-9.824285719898572,,,,,,,,,,
acc,1778672684.0,103.0,-0.9303523223530615,3.125850775638971,-9.824746567546017,,,,,,,,,,
acc,1778672684.0,103.0,-0.9281454898552179,3.1288957593935716,-9.823534883445612,,,,,,,,,,
acc,1778672684.0,103.0,-0.9256037493747433,3.1305287020532617,-9.824038048407223,,,,,,,,,,
acc,1778672684.0,103.0,-0.9230851060400556,3.1283131697142412,-9.824146184906159,,,,,,,,,,
acc,1778672684.0,103.0,-0.9223286826458499,3.1292414738125247,-9.822230023931438,,,,,,,,,,
acc,1778672684.0,103.0,-0.920549723840474,3.1298063714230304,-9.821999619337184,,,,,,,,,,
