sensor,time,t,ax,ay,az,wx,wy,wz,lat,lon,alt,v_kmh,satellites,x,y
acc,1778672593.0,12.0,-0.074219,0.089844,-9.796875,,,,,,,,,,
acc,1778672593.0,12.0,-0.08642787116348856,0.089844,-9.80908418371459,,,,,,,,,,
acc,1778672593.0,12.0,-0.09282356866596454,0.089844,-9.807106587298572,,,,,,,,,,
acc,1778672593.0,12.0,-0.08924380876511316,0.08232777301738922,-9.80588946239945,,,,,,,,,,
acc,1778672593.0,12.0,-0.08681845963937355,0.08984656835494338,-9.804434321183258,,,,,,,,,,
acc,1778672593.0,12.0,-0.09049804955022589,0.08984621122774364,-9.803926330507238,,,,,,,,,,
acc,1778672593.0,12.0,-0.09328073341101534,0.08984594115088207,-9.807836199698711,,,,,,,,,,
acc,1778672593.0,12.0,-0.09120470330044511,0.08984572973843634,-9.806642405822162,,,,,,,,,,
acc,1778672593.0,12.0,-0.09337440672306617,0.0860063685008715,-9.80568244527575,,,,,,,,,,
acc,1778672593.0,12.0,-0.09515716452278526,0.08635005199268456,-9.80524349072066,,,,,,,,,,
acc,1778672593.0,12.0,-0.09343468086964454,0.08663748255141263,-9.80455505461385,,,,,,,,,,
acc,1778672593.0,12.0,-0.094944653317551,0.08688144481813304,-9.800998691132325,,,,,,,,,,
acc,1778672593.0,12.0,-0.09624242346660257,0.08709112211898953,-9.800983283861829,,,,,,,,,,
acc,1778672593.0,12.0,-0.09736987263376601,0.0846884673630353,-9.800711437137462,,,,,,,,,,
acc,1778672593.0,12.0,-0.09835854102581533,0.08500881626384056,-9.80071575955924,,,,,,,,,,
acc,1778672593.0,12.0,-0.09923263387537418,0.08529204033149534,-9.800719581060969,,,,,,,,,,
acc,1778672593.0,12.0,-0.10217546927168918,0.08554425881150282,-9.80072298420875,,,,,,,,,,
acc,1778672593.0,12.0,-0.1027593383903744,0.08371659349937541,-9.800520677880161,,,,,,,,,,
acc,1778672593.0,12.0,-0.10133164200464731,0.08206902971937853,-9.800533700183701,,,,,,,,,,
acc,1778672593.0,12.0,-0.10190182016791262,0.0824400218911564,-9.800545500395485,,,,,,,,,,
acc,1778672593.0,12.0,-0.10242092678781248,0.08277778384822262,-9.800556243648117,,,,,,,,,,
acc,1778672593.0,12.0,-0.1028955652211699,0.08308661213128435,-9.800566066602407,,,,,,,,,,
acc,1778672593.0,12.0,-0.10333124733064551,0.08337009308936501,-9.802049963895788,,,,,,,,,,
acc,1778672593.0,12.0,-0.10373261005117886,0.08363124379094326,-9.800265450236996,,,,,,,,,,
acc,1778672593.0,12.0,-0.10410358236107707,0.08387262066537567,-9.798616056508632,,,,,,,,,,
acc,1778672593.0,12.0,-0.10444751542125878,0.08409640417930804,-9.798697189967891,,,,,,,,,,
acc,1778672593.0,12.0,-0.10335325184711801,0.08430446549683618,-9.800186692670314,,,,,,,,,,
acc,1778672593.0,12.0,-0.10370084891028473,0.08313071914726859,-9.80157520125742,,,,,,,,,,
acc,1778672593.0,12.0,-0.10270123599339909,0.0833583399547523,-9.802872744897005,,,,,,,,,,
acc,1778672593.0,12.0,-0.10304901481621748,0.08357153707468136,-9.80280398489655,,,,,,,,,,
acc,1778672593.0,12.0,-0.1033754560858676,0.08377165374064563,-9.802739443583572,,,,,,,,,,
acc,1778672593.0,12.0,-0.10368248693620216,0.08395987133391433,-9.802678739940843,,,,,,,,,,
acc,1778672593.0,12.0,-0.10397180907869412,0.08413723304619779,-9.803681253592078,,,,,,,,,,
acc,1778672593.0,12.0,-0.10309889335711628,0.084304663508988,-9.803481565362645,,,,,,,,,,
acc,1778672593.0,12.0,-0.1033899116104806,0.08446298516942143,-9.80217626798069,,,,,,,,,,
acc,1778672593.0,12.0,-0.10366553575346099,0.08461293202487714,-9.802137387573776,,,,,,,,,,
acc,1778672593.0,12.0,-0.10180280813723228,0.08475516120031187,-9.802100508319462,,,,,,,,,,
acc,1778672593.0,12.0,-0.1010704966079324,0.08489026275355717,-9.801961778381603,,,,,,,,,,
acc,1778672593.0,12.0,-0.10037393995230014,0.0850187680171425,-9.802944483888998,,,,,,,,,,
acc,1778672593.0,12.0,-0.09971053779383769,0.08613193763173414,-9.803880414871019,,,,,,,,,,
acc,1778672593.0,12.0,-0.10004730424114802,0.08622405667948387,-9.803803499367405,,,,,,,,,,
acc,1778672593.0,12.0,-0.1003688109085134,0.08631200156912304,-9.803730069109037,,,,,,,,,,
acc,1778672593.0,12.0,-0.09974650441483157,0.08639605516197305,-9.803566933932414,,,,,,,,,,
acc,1778672593.0,12.0,-0.09915109904096213,0.08647647527872264,-9.802590869670754,,,,,,,,,,
acc,1778672593.0,12.0,-0.09858085129124641,0.08566004725077032,-9.80254947427499,,,,,,,,,,
acc,1778672593.0,12.0,-0.09803416548369236,0.0857539361576574,-9.803386372410094,,,,,,,,,,
acc,1778672593.0,12.0,-0.09750957841581369,0.0858440297830811,-9.803242943561665,,,,,,,,,,
acc,1778672593.0,12.0,-0.09785075306872805,0.08508553017969957,-9.80310518927472,,,,,,,,,,
acc,1778672593.0,12.0,-0.09817871125603418,0.08518666784415611,-9.803055790395694,,,,,,,,,,
acc,1778672593.0,12.0,-0.09849422516358174,0.0852839678688179,-9.802110566440437,,,,,,,,,,
acc,1778672593.0,12.0,-0.09879800777182605,0.08537765012676887,-9.802083251548206,,,,,,,,,,
acc,1778672593.0,12.0,-0.09830125011278641,0.08546791794913482,-9.801977989412697,,,,,,,,,,
acc,1778672593.0,12.0,-0.09859920223350449,0.08555495965125326,-9.801954180902095,,,,,,,,,,
acc,1778672593.0,12.0,-0.09812177630325393,0.08487399770204597,-9.801931207057246,,,,,,,,,,
acc,1778672593.0,12.0,-0.09766077369262918,0.08421646065508263,-9.801909023506289,,,,,,,,,,
acc,1778672593.0,12.0,-0.09721533683054553,0.08358112533993947,-9.801887588982707,,,,,,,,,,
acc,1778672593.0,12.0,-0.09751621058856935,0.08369841490434334,-9.801866865058503,,,,,,,,,,
acc,1778672593.0,12.0,-0.09780728790950675,0.08381188552539327,-9.801846815904412,,,,,,,,,,
acc,1778672593.0,12.0,-0.09808905437453966,0.0839217264971164,-9.80246759470495,,,,,,,,,,
acc,1778672593.0,12.0,-0.098361963797122,0.084028114729532,-9.80306885995483,,,,,,,,,,
acc,1778672593.0,12.0,-0.09862644077724755,0.0841312157443813,-9.80302830195339,,,,,,,,,,
acc,1778672593.0,12.0,-0.09888288301322788,0.08423118457632744,-9.802988976093834,,,,,,,,,,
acc,1778672593.0,12.0,-0.09913166339742012,0.08432816658993271,-9.802950825192475,,,,,,,,,,
acc,1778672593.0,12.0,-0.09937313191909979,0.08375566026327315,-9.803580433536037,,,,,,,,,,
acc,1778672593.0,12.0,-0.09894903538925415,0.08385830915464303,-9.80346738049557,,,,,,,,,,
acc,1778672593.0,12.0,-0.09918781964592362,0.08330720950476,-9.803357545122747,,,,,,,,,,
acc,1778672593.0,12.0,-0.09877661971344431,0.08277155041707267,-9.803315113193824,,,,,,,,,,
acc,1778672593.0,12.0,-0.09901278535347274,0.08288670663535447,-9.80327385183329,,,,,,,,,,
acc,1778672593.0,12.0,-0.09924253466743388,0.08299873420272379,-9.80323371149249,,,,,,,,,,
acc,1778672593.0,12.0,-0.0994661352991707,0.08310776362441753,-9.803194645410395,,,,,,,,,,
acc,1778672593.0,12.0,-0.09968384004268115,0.08321391816477174,-9.803156609420439,,,,,,,,,,
acc,1778672593.0,12.0,-0.10050507564316209,0.08331731434210209,-9.803667835459233,,,,,,,,,,
acc,1778672593.0,12.0,-0.10070228896464482,0.08341806238356797,-9.803623273328652,,,,,,,,,,
acc,1778672593.0,12.0,-0.10089452285873751,0.08351626664374466,-9.803579836344648,,,,,,,,,,
acc,1778672593.0,12.0,-0.10049083476183256,0.08302087476096622,-9.80353748077683,,,,,,,,,,
acc,1778672593.0,12.0,-0.10068254061865634,0.08312314342175424,-9.804023117137545,,,,,,,,,,
acc,1778672593.0,12.0,-0.10028960781464198,0.08322293524699499,-9.80391698131276,,,,,,,,,,
acc,1778672593.0,12.0,-0.10048073389594675,0.08332034267972058,-9.80387084554757,,,,,,,,,,
acc,1778672593.0,12.0,-0.10066735381072624,0.08284593931118849,-9.803768850472679,,,,,,,,,,
acc,1778672593.0,12.0,-0.1008496313771628,0.08294706704641992,-9.803104736168255,,,,,,,,,,
acc,1778672593.0,12.0,-0.10102772242703274,0.0830458720990132,-9.803071446461676,,,,,,,,,,
acc,1778672593.0,12.0,-0.10120177528619893,0.08314243676027204,-9.803038911594735,,,,,,,,,,
acc,1778672593.0,12.0,-0.10137193122086338,0.08268657219532716,-9.80295208266627,,,,,,,,,,
acc,1778672593.0,12.0,-0.10099255018643492,0.0822407872122976,-9.80341296224269,,,,,,,,,,
acc,1778672593.0,12.0,-0.10062145461432444,0.0823461717645771,-9.803322342626615,,,,,,,,,,
acc,1778672593.0,12.0,-0.10025836528629747,0.08244928268571791,-9.803233678093864,,,,,,,,,,
acc,1778672593.0,12.0,-0.09990301567140793,0.08255019566577546,-9.803146903558963,,,,,,,,,,
acc,1778672593.0,12.0,-0.09955515121369134,0.08264898299412304,-9.803061956860661,,,,,,,,,,
acc,1778672593.0,12.0,-0.0992145286672434,0.08274571374827774,-9.802978778599572,,,,,,,,,,
acc,1778672593.0,12.0,-0.09888091547504706,0.08336181115730416,-9.802428087848792,,,,,,,,,,
acc,1778672593.0,12.0,-0.09907174923895104,0.0839653749048464,-9.802872170149339,,,,,,,,,,
acc,1778672593.0,12.0,-0.09874468451414581,0.08404273821304598,-9.802793246776087,,,,,,,,,,
acc,1778672593.0,12.0,-0.09842412549039475,0.08411856267429099,-9.802715893281315,,,,,,,,,,
acc,1778672593.0,12.0,-0.09810987276566871,0.08419289545478272,-9.802640061547692,,,,,,,,,,
acc,1778672593.0,12.0,-0.09780173524336945,0.08426578175617057,-9.80211227360797,,,,,,,,,,
acc,1778672593.0,12.0,-0.09749952970406589,0.08433726491685285,-9.802045159548516,,,,,,,,,,
acc,1778672593.0,12.0,-0.09720308040340277,0.08490479368508923,-9.801979323839365,,,,,,,,,,
acc,1778672593.0,12.0,-0.09740654519686147,0.08546162545060522,-9.801964159146507,,,,,,,,,,
acc,1778672593.0,12.0,-0.09760621459135925,0.08551674709626747,-9.801949277333348,,,,,,,,,,
acc,1778672593.0,12.0,-0.09780219736064949,0.0860592454922468,-9.801397426343671,,,,,,,,,,
acc,1778672593.0,12.0,-0.09799459801583857,0.0865918282657399,-9.801389764198532,,,,,,,,,,
acc,1778672593.0,12.0,-0.09818351701256257,0.08711477348722019,-9.801382240706625,,,,,,,,,,
acc,1778672593.0,12.0,-0.09788901553086045,0.08714831312632466,-9.801854899725575,,,,,,,,,,
acc,1778672593.0,12.0,-0.09759973973052267,0.08718125763271191,-9.801794039415752,,,,,,,,,,
acc,1778672593.0,12.0,-0.09779034488611307,0.08721362317058912,-9.801781725958023,,,,,,,,,,
acc,1778672593.0,12.0,-0.09797763205473183,0.08724542530065779,-9.802194686662968,,,,,,,,,,
acc,1778672593.0,12.0,-0.09816168948626186,0.08727667900811033,-9.802177683900105,,,,,,,,,,
acc,1778672593.0,12.0,-0.09881001724353641,0.08730739872908741,-9.801646818677302,,,,,,,,,,
acc,1778672593.0,12.0,-0.09898230232842753,0.08733759837569392,-9.801636510625192,,,,,,,,,,
acc,1778672593.0,12.0,-0.09915169696839204,0.08736729135966406,-9.801626375512354,,,,,,,,,,
acc,1778672593.0,12.0,-0.09931827494887316,0.08693595582143172,-9.801570358981632,,,,,,,,,,
acc,1778672593.0,12.0,-0.09948210744954786,0.08651172940414432,-9.802019445123127,,,,,,,,,,
acc,1778672593.0,12.0,-0.09964326315896632,0.0865506466165138,-9.802004981462245,,,,,,,,,,
acc,1778672593.0,12.0,-0.0998018083832146,0.08658893342735345,-9.80199075209137,,,,,,,,,,
acc,1778672593.0,12.0,-0.0999578071489606,0.08662660529835212,-9.802383633869802,,,,,,,,,,
acc,1778672593.0,12.0,-0.1001113213012186,0.08666367716435489,-9.802365167802197,,,,,,,,,,
acc,1778672593.0,12.0,-0.10026241059614514,0.08670016345577222,-9.802346993418315,,,,,,,,,,
acc,1778672593.0,12.0,-0.10041113278915792,0.08628982892607694,-9.802284482278584,,,,,,,,,,
acc,1778672593.0,12.0,-0.1005575437186498,0.08633026209310043,-9.801778551847402,,,,,,,,,,
acc,1778672593.0,12.0,-0.10114427168028096,0.0863700718894808,-9.801280421502177,,,,,,,,,,
acc,1778672593.0,12.0,-0.101281226181936,0.08596847407196438,-9.801230709397686,,,,,,,,,,
acc,1778672593.0,12.0,-0.10141610200969466,0.08601203445697407,-9.801620814629686,,,,,,,,,,
acc,1778672593.0,12.0,-0.1015489463700399,0.08561757305995556,-9.802048777399785,,,,,,,,,,
acc,1778672593.0,12.0,-0.10167980496802366,0.08566471436371184,-9.802034636689358,,,,,,,,,,
acc,1778672593.0,12.0,-0.10137464956749304,0.08571115625002065,-9.802454789391302,,,,,,,,,,
acc,1778672593.0,12.0,-0.10150647399987998,0.08532441742127977,-9.802868754316476,,,,,,,,,,
acc,1778672593.0,12.0,-0.10120543736902304,0.08494333289880501,-9.803233575710555,,,,,,,,,,
acc,1778672593.0,12.0,-0.10090877048250184,0.08456778006836646,-9.803593101482585,,,,,,,,,,
acc,1778672594.0,13.0,-0.10061637943692296,0.0841976400569561,-9.80394744543256,,,,,,,,,,
acc,1778672594.0,13.0,-0.100754651609498,0.08425928694582867,-9.803912874220014,,,,,,,,,,
acc,1778672594.0,13.0,-0.10046590102305335,0.08389498931594458,-9.803878794389188,,,,,,,,,,
acc,1778672594.0,13.0,-0.10018122670335934,0.08311216735007852,-9.803802831120182,,,,,,,,,,
acc,1778672594.0,13.0,-0.09990054412519044,0.08276262894142361,-9.803770161528345,,,,,,,,,,
acc,1778672594.0,13.0,-0.09962377123995043,0.08241795933457896,-9.80373794699885,,,,,,,,,,
acc,1778672594.0,13.0,-0.09935082838395831,0.08249774295981965,-9.803664213118838,,,,,,,,,,
acc,1778672594.0,13.0,-0.09908163819075941,0.0825764296483376,-9.803591492998232,,,,,,,,,,
acc,1778672594.0,13.0,-0.09881612550725812,0.0826540413680513,-9.803144328948482,,,,,,,,,,
acc,1778672594.0,13.0,-0.09855421731347994,0.08273059946334897,-9.802703235411826,,,,,,,,,,
acc,1778672594.0,13.0,-0.09871057620413122,0.0828061246775349,-9.802682826432964,,,,,,,,,,
acc,1778672594.0,13.0,-0.09845127514955125,0.08288063717431776,-9.802621336902591,,,,,,,,,,
acc,1778672594.0,13.0,-0.09819543009476694,0.08254172828603817,-9.80214823864071,,,,,,,,,,
acc,1778672594.0,13.0,-0.097531668033555,0.08261861621026437,-9.80213384255342,,,,,,,,,,
acc,1778672594.0,13.0,-0.09728685696357767,0.08269449143544305,-9.802078618377857,,,,,,,,,,
acc,1778672594.0,13.0,-0.09704525166322783,0.08276937308425944,-9.802024117355804,,,,,,,,,,
acc,1778672594.0,13.0,-0.09721486205962147,0.08284327976540688,-9.802378406358024,,,,,,,,,,
acc,1778672594.0,13.0,-0.09738227654342911,0.08332326858160327,-9.802361760854179,,,,,,,,,,
acc,1778672594.0,13.0,-0.09754753558088755,0.08379707758516936,-9.802345329659692,,,,,,,,,,
acc,1778672594.0,13.0,-0.09771067857524164,0.08426481974791274,-9.802693657827074,,,,,,,,,,
acc,1778672594.0,13.0,-0.0978717439025097,0.08432253291058137,-9.802673872566997,,,,,,,,,,
acc,1778672594.0,13.0,-0.09762764525169147,0.08437951499573054,-9.802614027629948,,,,,,,,,,
acc,1778672594.0,13.0,-0.09738662246675019,0.08403357410222337,-9.80259515420009,,,,,,,,,,
acc,1778672594.0,13.0,-0.09754990569335452,0.08369196980970219,-9.80297781226372,,,,,,,,,,
acc,1778672594.0,13.0,-0.09771115250433038,0.08335462589550956,-9.802915257237583,,,,,,,,,,
acc,1778672594.0,13.0,-0.09787039841862916,0.08302146805056602,-9.803292958522501,,,,,,,,,,
acc,1778672594.0,13.0,-0.09802767807013825,0.08269242381743155,-9.803227457232724,,,,,,,,,,
acc,1778672594.0,13.0,-0.09858086161393664,0.08276525890853964,-9.80320254133574,,,,,,,,,,
acc,1778672594.0,13.0,-0.09873026584930077,0.08283720339452577,-9.803177930102692,,,,,,,,,,
acc,1778672594.0,13.0,-0.09887785189879518,0.0829082723467795,-9.80315361837786,,,,,,,,,,
acc,1778672594.0,13.0,-0.09902365030351848,0.08258305837110154,-9.803090061956935,,,,,,,,,,
acc,1778672594.0,13.0,-0.09916769087126269,0.0826564149329345,-9.80306673373659,,,,,,,,,,
acc,1778672594.0,13.0,-0.09931000269937286,0.08272889108726947,-9.803398191791649,,,,,,,,,,
acc,1778672594.0,13.0,-0.09945061419675763,0.08280050130211289,-9.803725689611477,,,,,,,,,,
acc,1778672594.0,13.0,-0.09958955310508726,0.08287125970566199,-9.80369610750395,,,,,,,,,,
acc,1778672594.0,13.0,-0.0997268465192134,0.0829411800967041,-9.80366687574599,,,,,,,,,,
acc,1778672594.0,13.0,-0.09986252090684365,0.08301027595463645,-9.803637988702238,,,,,,,,,,
acc,1778672594.0,13.0,-0.09999660212750189,0.08346887894982498,-9.803609440866829,,,,,,,,,,
acc,1778672594.0,13.0,-0.10051877315285856,0.0839221192072646,-9.803931921783875,,,,,,,,,,
acc,1778672594.0,13.0,-0.10064586295639162,0.08437008120015017,-9.803900544028624,,,,,,,,,,
acc,1778672594.0,13.0,-0.10077147870784994,0.08442450169603334,-9.80386953020851,,,,,,,,,,
acc,1778672594.0,13.0,-0.10089564331105695,0.08486600760644986,-9.803838874668712,,,,,,,,,,
acc,1778672594.0,13.0,-0.10063128430988964,0.08491533829178506,-9.803769864376441,,,,,,,,,,
acc,1778672594.0,13.0,-0.10036995549988006,0.08496410352859819,-9.804126789617136,,,,,,,,,,
acc,1778672594.0,13.0,-0.10049750344993406,0.08501231192811205,-9.804093736628513,,,,,,,,,,
acc,1778672594.0,13.0,-0.10062360043009953,0.08505997191476597,-9.804407849862793,,,,,,,,,,
acc,1778672594.0,13.0,-0.1007482682494104,0.08510709173156675,-9.804372127559734,,,,,,,,,,
acc,1778672594.0,13.0,-0.10087152825054416,0.08515367944525576,-9.803914206534214,,,,,,,,,,
acc,1778672594.0,13.0,-0.10060977452138718,0.08519974295129935,-9.803499808599465,,,,,,,,,,
acc,1778672594.0,13.0,-0.10073404340834677,0.08524528997870964,-9.803051740404968,,,,,,,,,,
acc,1778672594.0,13.0,-0.10047436458645052,0.08529032809470213,-9.802646942375079,,,,,,,,,,
acc,1778672594.0,13.0,-0.10021757730020786,0.0853348647091967,-9.803010743511882,,,,,,,,,,
acc,1778672594.0,13.0,-0.09958209713082833,0.08499736450232656,-9.802950813465793,,,,,,,,,,
acc,1778672594.0,13.0,-0.09933469004613515,0.08504464153449912,-9.802891546283677,,,,,,,,,,
acc,1778672594.0,13.0,-0.09909001048980139,0.08509139736314122,-9.802832932489963,,,,,,,,,,
acc,1778672594.0,13.0,-0.09884801970612962,0.08513763939408105,-9.802774962800598,,,,,,,,,,
acc,1778672594.0,13.0,-0.09860867971728049,0.0851833748845058,-9.802375988996681,,,,,,,,,,
acc,1778672594.0,13.0,-0.09837195330237639,0.08522861094695483,-9.802322596356076,,,,,,,,,,
acc,1778672594.0,13.0,-0.09813780397728394,0.08527335455318302,-9.802269784967168,,,,,,,,,,
acc,1778672594.0,13.0,-0.09828443695197565,0.08531761253789923,-9.802255368923944,,,,,,,,,,
acc,1778672594.0,13.0,-0.09805167687012037,0.08498357560445947,-9.801825514182088,,,,,,,,,,
acc,1778672594.0,13.0,-0.09782142812477138,0.08465314272176033,-9.801815423075611,,,,,,,,,,
acc,1778672594.0,13.0,-0.09759365645075792,0.08432626471542246,-9.801805440531684,,,,,,,,,,
acc,1778672594.0,13.0,-0.09736832823819817,0.08437945486312241,-9.801757911818076,,,,,,,,,,
acc,1778672594.0,13.0,-0.09714541051559317,0.08443207599944441,-9.802124663887643,,,,,,,,,,
acc,1778672594.0,13.0,-0.09730062609807959,0.08485989092531829,-9.80211173857288,,,,,,,,,,
acc,1778672594.0,13.0,-0.09745419028814231,0.08490778596694468,-9.802436793698046,,,,,,,,,,
acc,1778672594.0,13.0,-0.09760612501093817,0.08495517279501852,-9.802420898355832,,,,,,,,,,
acc,1778672594.0,13.0,-0.09775645178632089,0.08500205812135388,-9.802742337462291,,,,,,,,,,
acc,1778672594.0,13.0,-0.0979051917390011,0.08504844853452388,-9.803060383514717,,,,,,,,,,
acc,1778672594.0,13.0,-0.09767847269891848,0.0850943505029323,-9.803412468236154,,,,,,,,,,
acc,1778672594.0,13.0,-0.09745413481569032,0.08476621932466209,-9.803723502888996,,,,,,,,,,
acc,1778672594.0,13.0,-0.09760534404107017,0.08481473223442819,-9.804031278882373,,,,,,,,,,
acc,1778672594.0,13.0,-0.09775497290716754,0.08448986999091881,-9.803962970041107,,,,,,,,,,
acc,1778672594.0,13.0,-0.09790304165622965,0.08454093130415885,-9.804267909782544,,,,,,,,,,
acc,1778672594.0,13.0,-0.09804957017336204,0.08459146147044504,-9.80423468484407,,,,,,,,,,
acc,1778672594.0,13.0,-0.09782269593295197,0.08426957564445689,-9.804536509999414,,,,,,,,,,
acc,1778672594.0,13.0,-0.09796973970331159,0.08432260114914798,-9.804500786523699,,,,,,,,,,
acc,1778672594.0,13.0,-0.09811526429181432,0.08437507882114625,-9.804799578880838,,,,,,,,,,
acc,1778672594.0,13.0,-0.09788832869956339,0.08442701551097949,-9.80472432155276,,,,,,,,,,
acc,1778672594.0,13.0,-0.09766372748843265,0.08447841795218741,-9.804316238694627,,,,,,,,,,
acc,1778672594.0,13.0,-0.09744143173566695,0.08415890931666851,-9.80461606658713,,,,,,,,,,
acc,1778672594.0,13.0,-0.09759150222465865,0.08421277216978244,-9.804579731612057,,,,,,,,,,
acc,1778672594.0,13.0,-0.09737022883121182,0.08426608442874758,-9.804913587365224,,,,,,,,,,
acc,1778672594.0,13.0,-0.09752074847514286,0.08468838854748678,-9.80446799525133,,,,,,,,,,
acc,1778672594.0,13.0,-0.09766973565267285,0.08473712634824712,-9.804765492228263,,,,,,,,,,
acc,1778672594.0,13.0,-0.09781720893489997,0.08515437178236303,-9.804727852346327,,,,,,,,,,
acc,1778672594.0,13.0,-0.09796318658960297,0.08519864171111191,-9.804690594196204,,,,,,,,,,
acc,1778672594.0,13.0,-0.09810768658805569,0.08561095337961869,-9.804653713191053,,,,,,,,,,
acc,1778672594.0,13.0,-0.09788248605337899,0.08528260865899362,-9.804617204818017,,,,,,,,,,
acc,1778672594.0,13.0,-0.09802755262676781,0.08532558068954274,-9.804912272280282,,,,,,,,,,
acc,1778672594.0,13.0,-0.09817115882043766,0.08500035481611483,-9.804836604003372,,,,,,,,,,
acc,1778672594.0,13.0,-0.09831332189686193,0.0850459269364479,-9.805129225883604,,,,,,,,,,
acc,1778672594.0,13.0,-0.09808676963190989,0.08472374327678328,-9.805088340714613,,,,,,,,,,
acc,1778672594.0,13.0,-0.09822954856701903,0.08477185790876633,-9.805047864987612,,,,,,,,,,
acc,1778672594.0,13.0,-0.0983709000601534,0.08445264228097685,-9.80464095408011,,,,,,,,,,
acc,1778672594.0,13.0,-0.09851084072334351,0.08450324356317744,-9.804604725983985,,,,,,,,,,
acc,1778672594.0,13.0,-0.09864938691339799,0.08418692413301726,-9.804532220057327,,,,,,,,,,
acc,1778672594.0,13.0,-0.09878655473731329,0.08387375169658907,-9.804460435476482,,,,,,,,,,
acc,1778672594.0,13.0,-0.09855636968519334,0.08356369003780695,-9.804425961103433,,,,,,,,,,
acc,1778672594.0,13.0,-0.09832846754655461,0.08325670348722287,-9.803989454547331,,,,,,,,,,
acc,1778672594.0,13.0,-0.09846841127563309,0.08295275691064134,-9.803922868950355,,,,,,,,,,
acc,1778672594.0,13.0,-0.09860697126863925,0.08301721901190083,-9.803491538424803,,,,,,,,,,
acc,1778672594.0,13.0,-0.09874416322442402,0.08308104466282586,-9.803466196777016,,,,,,,,,,
acc,1778672594.0,13.0,-0.09924502658440461,0.08314424105925815,-9.803441104971503,,,,,,,,,,
acc,1778672594.0,13.0,-0.099376119399568,0.08320681529151497,-9.803416260193089,,,,,,,,,,
acc,1778672594.0,13.0,-0.09950592342037634,0.08326877434652348,-9.803719855219319,,,,,,,,,,
acc,1778672594.0,13.0,-0.09963445307217328,0.08333012510989983,-9.803692433953394,,,,,,,,,,
acc,1778672594.0,13.0,-0.09976172257229915,0.08339087436797442,-9.803665281535581,,,,,,,,,,
acc,1778672594.0,13.0,-0.09952361962718917,0.08345102880976507,-9.80360198420981,,,,,,,,,,
acc,1778672594.0,13.0,-0.09965180339489592,0.08314662729796271,-9.803539305839513,,,,,,,,,,
acc,1778672594.0,13.0,-0.09977873532240548,0.08320900151200855,-9.803513617085654,,,,,,,,,,
acc,1778672594.0,13.0,-0.09990442920034624,0.08327076734981431,-9.803488178890905,,,,,,,,,,
acc,1778672594.0,13.0,-0.10002889862586357,0.08333193149300276,-9.803063160563598,,,,,,,,,,
acc,1778672594.0,13.0,-0.10015215700635381,0.08339250052995417,-9.803041934087346,,,,,,,,,,
acc,1778672594.0,13.0,-0.10027421756310455,0.08345248095759521,-9.80334777308033,,,,,,,,,,
acc,1778672594.0,13.0,-0.10039509333484428,0.08351187918314316,-9.803323919319533,,,,,,,,,,
acc,1778672594.0,13.0,-0.10015193007623391,0.08357070152580695,-9.803264011975218,,,,,,,,,,
acc,1778672594.0,13.0,-0.10027384419813525,0.08326622240488388,-9.80320468478835,,,,,,,,,,
acc,1778672594.0,13.0,-0.10003199837277146,0.08332727853860906,-9.802819607080645,,,,,,,,,,
acc,1778672594.0,13.0,-0.09979248944606338,0.08338774470144429,-9.802764449348055,,,,,,,,,,
acc,1778672594.0,13.0,-0.09955529233443397,0.08344762722596209,-9.802709824015153,,,,,,,,,,
acc,1778672594.0,13.0,-0.09968255273043225,0.0838691028002361,-9.803017905094626,,,,,,,,,,
acc,1778672594.0,13.0,-0.0998085873565994,0.08428651872940644,-9.802997172764545,,,,,,,,,,
acc,1778672594.0,13.0,-0.09993340926583379,0.08469991824355892,-9.80297663992288,,,,,,,,,,
acc,1778672594.0,13.0,-0.10041882315089612,0.085109344002517,-9.802956304450788,,,,,,,,,,
acc,1778672594.0,13.0,-0.10053790842699187,0.08515318011387617,-9.802936164257247,,,,,,,,,,
acc,1778672594.0,13.0,-0.1002943155295745,0.08519659568373134,-9.802880065556678,,,,,,,,,,
acc,1778672595.0,14.0,-0.10005305730122889,0.08523959514544359,-9.802824504523269,,,,,,,,,,
acc,1778672595.0,14.0,-0.09981410918945482,0.0852821828750058,-9.802444305525688,,,,,,,,,,
acc,1778672595.0,14.0,-0.09957744695797399,0.0856855454795602,-9.802392809583093,,,,,,,,,,
acc,1778672595.0,14.0,-0.0993430466812062,0.08572398406738589,-9.802341805825034,,,,,,,,,,
acc,1778672595.0,14.0,-0.09911088473887367,0.08576205559756149,-9.80229128911191,,,,,,,,,,
acc,1778672595.0,14.0,-0.09888093781072964,0.08579976389430326,-9.801916489318847,,,,,,,,,,
acc,1778672595.0,14.0,-0.0990139235199352,0.08583711273347087,-9.801906002985499,,,,,,,,,,
acc,1778672595.0,14.0,-0.09878500733880409,0.08587410584339272,-9.801859554849058,,,,,,,,,,
acc,1778672595.0,14.0,-0.09855826965529028,0.0859107469056724,-9.801813548739712,,,,,,,,,,
acc,1778672595.0,14.0,-0.09833368797160877,0.08594703955597703,-9.801767980092558,,,,,,,,,,
acc,1778672595.0,14.0,-0.0981112400694649,0.08562264756155664,-9.801758875614354,,,,,,,,,,
acc,1778672595.0,14.0,-0.09789090400539315,0.08566157719639382,-9.80171383614015,,,,,,,,,,
acc,1778672595.0,14.0,-0.09767265810619982,0.08570013753464847,-9.802065381664164,,,,,,,,,,
acc,1778672595.0,14.0,-0.0978165233711358,0.08573833235864017,-9.802053543256878,,,,,,,,,,
acc,1778672595.0,14.0,-0.09795902595646458,0.0857761654044933,-9.802041816981983,,,,,,,,,,
acc,1778672595.0,14.0,-0.09810017976357162,0.08581364036289005,-9.802030201695562,,,,,,,,,,
acc,1778672595.0,14.0,-0.09823999852545327,0.08585076087980693,-9.802018696267549,,,,,,,,,,
acc,1778672595.0,14.0,-0.09837849580943064,0.08588753055723532,-9.802007299581515,,,,,,,,,,
acc,1778672595.0,14.0,-0.0985156850198046,0.08592395295388627,-9.801996010534445,,,,,,,,,,
acc,1778672595.0,14.0,-0.09865157940045356,0.0856005104921271,-9.802344349130278,,,,,,,,,,
acc,1778672595.0,14.0,-0.09878619203737561,0.08528011871093616,-9.802294022905555,,,,,,,,,,
acc,1778672595.0,14.0,-0.09891953586117623,0.08496274683415588,-9.80224417103878,,,,,,,,,,
acc,1778672595.0,14.0,-0.09905162364950333,0.08500764155580184,-9.802230713704306,,,,,,,,,,
acc,1778672595.0,14.0,-0.0991824680294307,0.08469291492400474,-9.802181465935364,,,,,,,,,,
acc,1778672595.0,14.0,-0.09967120328211869,0.08474027091193277,-9.802491803271298,,,,,,,,,,
acc,1778672595.0,14.0,-0.10015534355520034,0.08442813539383952,-9.802440176609357,,,,,,,,,,
acc,1778672595.0,14.0,-0.10027596267973544,0.08411893272413784,-9.802783901622321,,,,,,,,,,
acc,1778672595.0,14.0,-0.10039544913341672,0.08417153295657344,-9.802765499551953,,,,,,,,,,
acc,1778672595.0,14.0,-0.10051381420942568,0.08386481165204356,-9.802711390151865,,,,,,,,,,
acc,1778672595.0,14.0,-0.10063106907075288,0.08356096726448092,-9.802657788275216,,,,,,,,,,
acc,1778672595.0,14.0,-0.10038854506827531,0.08325997119935746,-9.802640555009503,,,,,,,,,,
acc,1778672595.0,14.0,-0.10014829329181175,0.08332041644636175,-9.802587623832071,,,,,,,,,,
acc,1778672595.0,14.0,-0.10026883692949258,0.08338029568601461,-9.8028937431836,,,,,,,,,,
acc,1778672595.0,14.0,-0.10038825240509655,0.08343961451875868,-9.80287435407583,,,,,,,,,,
acc,1778672595.0,14.0,-0.10050655086518183,0.08349837848157161,-9.802855146334286,,,,,,,,,,
acc,1778672595.0,14.0,-0.10062374333040967,0.08355659304889261,-9.80283611816958,,,,,,,,,,
acc,1778672595.0,14.0,-0.10038154857557285,0.08361426363353068,-9.802781440434767,,,,,,,,,,
acc,1778672595.0,14.0,-0.10049984746052816,0.08367139558755497,-9.802763094703227,,,,,,,,,,
acc,1778672595.0,14.0,-0.1006170420013302,0.08372799420316769,-9.803067286189902,,,,,,,,,,
acc,1778672595.0,14.0,-0.10037502920122136,0.08378406471356004,-9.803404448903999,,,,,,,,,,
acc,1778672595.0,14.0,-0.10013527348422609,0.0838396122937515,-9.803344597590502,,,,,,,,,,
acc,1778672595.0,14.0,-0.09989775276133778,0.08389464206141305,-9.803285304208782,,,,,,,,,,
acc,1778672595.0,14.0,-0.09966244518759419,0.08430710420573416,-9.803620310277255,,,,,,,,,,
acc,1778672595.0,14.0,-0.09942932915865922,0.08435783393791742,-9.803558508900352,,,,,,,,,,
acc,1778672595.0,14.0,-0.09955622103272882,0.08476592913038405,-9.803533064799517,,,,,,,,,,
acc,1778672595.0,14.0,-0.09932414663813076,0.08481244134343496,-9.803472080749389,,,,,,,,,,
acc,1778672595.0,14.0,-0.09909423087219635,0.08485852092540447,-9.80341166393943,,,,,,,,,,
acc,1778672595.0,14.0,-0.09886645276401315,0.08490417207927044,-9.803351808858945,,,,,,,,,,
acc,1778672595.0,14.0,-0.09864079157036164,0.08494939896237669,-9.803292510057071,,,,,,,,,,
acc,1778672595.0,14.0,-0.09841722677261978,0.08499420568705332,-9.803233762141964,,,,,,,,,,
acc,1778672595.0,14.0,-0.09819573807372457,0.0850385963212257,-9.803175559780005,,,,,,,,,,
acc,1778672595.0,14.0,-0.09797630539518909,0.08508257488901234,-9.803117897695007,,,,,,,,,,
acc,1778672595.0,14.0,-0.09775890887417388,0.08512614537131177,-9.803060770667452,,,,,,,,,,
acc,1778672595.0,14.0,-0.09790092931338079,0.08516931170637895,-9.803039911749098,,,,,,,,,,
acc,1778672595.0,14.0,-0.09804163289697501,0.08521207779039121,-9.803019246240817,,,,,,,,,,
acc,1778672595.0,14.0,-0.09818103230705874,0.08525444747800409,-9.802998772279958,,,,,,,,,,
acc,1778672595.0,14.0,-0.09831914009092059,0.08529642458289728,-9.802978488023665,,,,,,,,,,
acc,1778672595.0,14.0,-0.09845596866279994,0.08533801287831089,-9.802958391648627,,,,,,,,,,
acc,1778672595.0,14.0,-0.09823434327704647,0.08537921609757226,-9.802902764476782,,,,,,,,,,
acc,1778672595.0,14.0,-0.09801476928395485,0.0854200379346136,-9.802847652197089,,,,,,,,,,
acc,1778672595.0,14.0,-0.09815433402325574,0.08546048204448047,-9.80282875874654,,,,,,,,,,
acc,1778672595.0,14.0,-0.098292607780093,0.08550055204383161,-9.802810040061575,,,,,,,,,,
acc,1778672595.0,14.0,-0.09842960290408025,0.08554025151143009,-9.802398754315448,,,,,,,,,,
acc,1778672595.0,14.0,-0.09856533161572621,0.08557958398862595,-9.802383969463385,,,,,,,,,,
acc,1778672595.0,14.0,-0.098699806008072,0.08561855297983072,-9.802369321243615,,,,,,,,,,
acc,1778672595.0,14.0,-0.09918996651316679,0.08565716195298388,-9.802354808352563,,,,,,,,,,
acc,1778672595.0,14.0,-0.09931870702342843,0.08569541434001138,-9.802661635898813,,,,,,,,,,
acc,1778672595.0,14.0,-0.09908940990249596,0.08537645545018308,-9.802644455443412,,,,,,,,,,
acc,1778672595.0,14.0,-0.09921904402918136,0.08506044071020288,-9.802591753927041,,,,,,,,,,
acc,1778672595.0,14.0,-0.09934748190463275,0.08474734212380304,-9.802539538735187,,,,,,,,,,
acc,1778672595.0,14.0,-0.09947473489509215,0.08479388923068987,-9.80252347823192,,,,,,,,,,
acc,1778672595.0,14.0,-0.09960081424999821,0.08484000704047845,-9.8028286209564,,,,,,,,,,
acc,1778672595.0,14.0,-0.09972573110341831,0.0848856996258324,-9.802809923668839,,,,,,,,,,
acc,1778672595.0,14.0,-0.1002061582845923,0.08457430920859485,-9.803148060541684,,,,,,,,,,
acc,1778672595.0,14.0,-0.1003255268886914,0.08462241959092266,-9.80312645012996,,,,,,,,,,
acc,1778672595.0,14.0,-0.10044379571550709,0.08467008671846016,-9.803105038821178,,,,,,,,,,
acc,1778672595.0,14.0,-0.10056097516771582,0.0847173147839073,-9.80308382473204,,,,,,,,,,
acc,1778672595.0,14.0,-0.10032054221060419,0.08440756547828325,-9.803383696949778,,,,,,,,,,
acc,1778672595.0,14.0,-0.10008232281378569,0.0844571818627159,-9.803716457034618,,,,,,,,,,
acc,1778672595.0,14.0,-0.09984629608295881,0.08450634155822975,-9.80365402241438,,,,,,,,,,
acc,1778672595.0,14.0,-0.09996889072928568,0.08455504887272833,-9.803235703815064,,,,,,,,,,
acc,1778672595.0,14.0,-0.10009035748154979,0.08460330807066975,-9.803213305794275,,,,,,,,,,
acc,1778672595.0,14.0,-0.10021070696518573,0.0846511233735792,-9.803191113793698,,,,,,,,,,
acc,1778672595.0,14.0,-0.10032994969883711,0.08469849896055338,-9.803489869775634,,,,,,,,,,
acc,1778672595.0,14.0,-0.10009175167231275,0.08474543896875729,-9.80342952540117,,,,,,,,,,
acc,1778672595.0,14.0,-0.10021206257648356,0.08479194749391343,-9.803013407242599,,,,,,,,,,
acc,1778672595.0,14.0,-0.09997497303058207,0.08483802859078357,-9.802636750116005,,,,,,,,,,
acc,1778672595.0,14.0,-0.10009633256499195,0.08488368627364322,-9.802227919529939,,,,,,,,,,
acc,1778672595.0,14.0,-0.09986033034293805,0.08492892451674902,-9.802179100707505,,,,,,,,,,
acc,1778672595.0,14.0,-0.0996264957584778,0.08497374725479909,-9.8021307302771,,,,,,,,,,
acc,1778672595.0,14.0,-0.09939480848879188,0.08501815838338658,-9.802082804034793,,,,,,,,,,
acc,1778672595.0,14.0,-0.09916524841273563,0.08506216175944652,-9.802035317818378,,,,,,,,,,
acc,1778672595.0,14.0,-0.09893779560854236,0.08510576120169601,-9.80166772508897,,,,,,,,,,
acc,1778672595.0,14.0,-0.09906856492250164,0.08514896049106808,-9.801659640672936,,,,,,,,,,
acc,1778672595.0,14.0,-0.0988420209402469,0.08519176337113918,-9.801616020933311,,,,,,,,,,
acc,1778672595.0,14.0,-0.09861755542617608,0.08523417354855041,-9.801252316360447,,,,,,,,,,
acc,1778672595.0,14.0,-0.09839514895533859,0.08527619469342279,-9.801212414675021,,,,,,,,,,
acc,1778672595.0,14.0,-0.09817478229390868,0.0853178304397665,-9.801172878949421,,,,,,,,,,
acc,1778672595.0,14.0,-0.09831246849478943,0.08535908438588428,-9.801489746979112,,,,,,,,,,
acc,1778672595.0,14.0,-0.09809287961309006,0.08539996009476915,-9.801447687981724,,,,,,,,,,
acc,1778672595.0,14.0,-0.09787530371091141,0.0854404610944964,-9.801406014540746,,,,,,,,,,
acc,1778672595.0,14.0,-0.09801569698992431,0.08548059087861025,-9.80100873897904,,,,,,,,,,
acc,1778672595.0,14.0,-0.09815480368086708,0.08552035290650484,-9.80132703557063,,,,,,,,,,
acc,1778672595.0,14.0,-0.09829263576820549,0.08555975060380018,-9.80132206001558,,,,,,,,,,
acc,1778672595.0,14.0,-0.09842920511954355,0.08559878736271269,-9.801317130043623,,,,,,,,,,
acc,1778672595.0,14.0,-0.09856452348690228,0.08563746654242074,-9.801312245230523,,,,,,,,,,
acc,1778672595.0,14.0,-0.09869860250798082,0.08567579146942514,-9.801307405156175,,,,,,,,,,
acc,1778672595.0,14.0,-0.09883145370740033,0.08571376543790464,-9.801302609404557,,,,,,,,,,
acc,1778672595.0,14.0,-0.09896308849793102,0.08575139171006672,-9.80129785756368,,,,,,,,,,
acc,1778672595.0,14.0,-0.09909351818170252,0.08578867351649355,-9.801613413559616,,,,,,,,,,
acc,1778672595.0,14.0,-0.09957858431906062,0.08582561405648327,-9.801605830987285,,,,,,,,,,
acc,1778672595.0,14.0,-0.09970339609198357,0.08586221649838675,-9.801598317814404,,,,,,,,,,
acc,1778672595.0,14.0,-0.0998270656734839,0.08589848397993986,-9.80159087339691,,,,,,,,,,
acc,1778672595.0,14.0,-0.10030538816419791,0.08593441960859126,-9.801583497096953,,,,,,,,,,
acc,1778672595.0,14.0,-0.1007793344777826,0.08597002646182589,-9.801576188282837,,,,,,,,,,
acc,1778672595.0,14.0,-0.10124894518262949,0.08564955228920677,-9.801533373531287,,,,,,,,,,
acc,1778672595.0,14.0,-0.1017142604567398,0.08568775051784681,-9.80184669148844,,,,,,,,,,
acc,1778672595.0,14.0,-0.10217532009186324,0.08536987225494658,-9.801801416788544,,,,,,,,,,
acc,1778672595.0,14.0,-0.10263216349758301,0.08541061432271511,-9.801792124722622,,,,,,,,,,
acc,1778672595.0,14.0,-0.10308482970534803,0.08509528386432284,-9.80174735035181,,,,,,,,,,
acc,1778672595.0,14.0,-0.10353335737245319,0.08513852313443923,-9.80173855128219,,,,,,,,,,
acc,1778672595.0,14.0,-0.10433344950768116,0.08518136712911217,-9.801694267998863,,,,,,,,,,
acc,1778672595.0,14.0,-0.10512622832136916,0.08522381950400122,-9.80165038949128,,,,,,,,,,
acc,1778672595.0,14.0,-0.10591176142866959,0.0852658838798184,-9.801286834652695,,,,,,,,,,
acc,1778672595.0,14.0,-0.10669011579891362,0.0853075638426928,-9.80092660222607,,,,,,,,,,
acc,1778672595.0,14.0,-0.10746135776233279,0.08534886294453045,-9.800889716986834,,,,,,,,,,
acc,1778672595.0,14.0,-0.10854559784202719,0.08538978470336979,-9.800497556319844,,,,,,,,,,
acc,1778672595.0,14.0,-0.10961993237621542,0.0854303326037326,-9.80050013658266,,,,,,,,,,
acc,1778672595.0,14.0,-0.11068445280998768,0.08547051009697068,-9.800111547646315,,,,,,,,,,
acc,1778672596.0,15.0,-0.11173924971864962,0.08551032060160808,-9.799726508152668,,,,,,,,,,
acc,1778672596.0,15.0,-0.11313998003657653,0.08554976750367929,-9.79938054844632,,,,,,,,,,
acc,1778672596.0,15.0,-0.11452791819005048,0.0859444014768195,-9.799037748215714,,,,,,,,,,
acc,1778672596.0,15.0,-0.11590318214271492,0.086335431780582,-9.798698078325568,,,,,,,,,,
acc,1778672596.0,15.0,-0.1172658887396713,0.08636736532992637,-9.79836150991687,,,,,,,,,,
acc,1778672596.0,15.0,-0.11861615371890823,0.08675452340988254,-9.798347980702081,,,,,,,,,,
acc,1778672596.0,15.0,-0.11995409172259235,0.08713814700715564,-9.798334574999569,,,,,,,,,,
acc,1778672596.0,15.0,-0.12127981630822311,0.08716277248577821,-9.798321291671522,,,,,,,,,,
acc,1778672596.0,15.0,-0.12294893558052168,0.08754265970852625,-9.79830812959089,,,,,,,,,,
acc,1778672596.0,15.0,-0.12495829773210557,0.08756360266046247,-9.797939601521065,,,,,,,,,,
acc,1778672596.0,15.0,-0.12659385408798526,0.08758435448008688,-9.797929913552064,,,,,,,,,,
acc,1778672596.0,15.0,-0.12856994350743398,0.08796037545873878,-9.79795585802506,,,,,,,,,,
acc,1778672596.0,15.0,-0.130528001258354,0.08797751573508668,-9.797981565756677,,,,,,,,,,
acc,1778672596.0,15.0,-0.1324681932172698,0.08799449961941193,-9.79800703892474,,,,,,,,,,
acc,1778672596.0,15.0,-0.1347461157366814,0.08765588741286853,-9.797996738302595,,,,,,,,,,
acc,1778672596.0,15.0,-0.13700325697182184,0.08732036433532839,-9.79798653165211,,,,,,,,,,
acc,1778672596.0,15.0,-0.13923980796960536,0.08698790198774954,-9.797976418109382,,,,,,,,,,
acc,1778672596.0,15.0,-0.1414559579811819,0.08665847223802964,-9.798357351750937,,,,,,,,,,
acc,1778672596.0,15.0,-0.14365189447987428,0.08633204721833956,-9.798343864828105,,,,,,,,,,
acc,1778672596.0,15.0,-0.14582780317890848,0.08600859932248785,-9.798330500911284,,,,,,,,,,
acc,1778672596.0,15.0,-0.14798386804893998,0.08568810120331537,-9.798317258870568,,,,,,,,,,
acc,1778672596.0,15.0,-0.15044012028072187,0.08572591045459024,-9.798659522271121,,,,,,,,,,
acc,1778672596.0,15.0,-0.1528739748857287,0.08540799774430378,-9.798643287508908,,,,,,,,,,
acc,1778672596.0,15.0,-0.15528563748578927,0.08509298377760893,-9.798307374289937,,,,,,,,,,
acc,1778672596.0,15.0,-0.15767531177759997,0.08478084194742377,-9.798294343742498,,,,,,,,,,
acc,1778672596.0,15.0,-0.16004319955175353,0.08447154589564372,-9.79828143199378,,,,,,,,,,
acc,1778672596.0,15.0,-0.1623895007115531,0.08416506951068396,-9.798659518642529,,,,,,,,,,
acc,1778672596.0,15.0,-0.16506974591983886,0.08386138692504963,-9.798643285533641,,,,,,,,,,
acc,1778672596.0,15.0,-0.16772555975089806,0.0835604725129331,-9.798627200395247,,,,,,,,,,
acc,1778672596.0,15.0,-0.1707124946816028,0.08326230088783819,-9.798611261870333,,,,,,,,,,
acc,1778672596.0,15.0,-0.17331688372421578,0.08296684690023082,-9.798595468614549,,,,,,,,,,
acc,1778672596.0,15.0,-0.17625285235576132,0.08267408563521578,-9.798579819296089,,,,,,,,,,
acc,1778672596.0,15.0,-0.17916206443582058,0.08238399241023918,-9.798955150155992,,,,,,,,,,
acc,1778672596.0,15.0,-0.18204476518716262,0.0820965427728163,-9.798936229846156,,,,,,,,,,
acc,1778672596.0,15.0,-0.18490119754783377,0.08181171249828446,-9.799308306149861,,,,,,,,,,
acc,1778672596.0,15.0,-0.18773160219344573,0.08117419537862298,-9.799641465705044,,,,,,,,,,
acc,1778672596.0,15.0,-0.19053621755921993,0.08054248700698834,-9.79965182998881,,,,,,,,,,
acc,1778672596.0,15.0,-0.19367055057620675,0.07991653417821469,-9.7996620998428,,,,,,,,,,
acc,1778672596.0,15.0,-0.1967763278050754,0.07965154930476163,-9.800027550349496,,,,,,,,,,
acc,1778672596.0,15.0,-0.20020907945543154,0.07974424722824175,-9.800389671522638,,,,,,,,,,
acc,1778672596.0,15.0,-0.20361055942561443,0.07948083735618575,-9.800712970239188,,,,,,,,,,
acc,1778672596.0,15.0,-0.20698105398913377,0.07921982698730966,-9.800713588935132,,,,,,,,,,
acc,1778672596.0,15.0,-0.20996559391634118,0.07896119415851426,-9.800678679439205,,,,,,,,,,
acc,1778672596.0,15.0,-0.21327819662907574,0.07870491711056966,-9.800679609965485,,,,,,,,,,
acc,1778672596.0,15.0,-0.21656062748197447,0.07845097428614665,-9.801355486837732,,,,,,,,,,
acc,1778672596.0,15.0,-0.2198131625376151,0.078199344327869,-9.801350262470788,,,,,,,,,,
acc,1778672596.0,15.0,-0.22303607529891678,0.07830523905476006,-9.801309565114812,,,,,,,,,,
acc,1778672596.0,15.0,-0.22658485587456134,0.07805494115532742,-9.801269238392939,,,,,,,,,,
acc,1778672596.0,15.0,-0.23010131869985095,0.07780692264873292,-9.800909584061875,,,,,,,,,,
acc,1778672596.0,15.0,-0.23390545916003916,0.07756116268930875,-9.800908414783985,,,,,,,,,,
acc,1778672596.0,15.0,-0.23767495905026764,0.07731764062439896,-9.801226951942391,,,,,,,,,,
acc,1778672596.0,15.0,-0.24176533610506842,0.07743154609498362,-9.801542588604644,,,,,,,,,,
acc,1778672596.0,15.0,-0.24546327220413805,0.07754441441746633,-9.801500145514835,,,,,,,,,,
acc,1778672596.0,15.0,-0.2491275385535651,0.07730105355118548,-9.801493606294063,,,,,,,,,,
acc,1778672596.0,15.0,-0.25243876256157355,0.07741510575666916,-9.801487126610855,,,,,,,,,,
acc,1778672596.0,15.0,-0.2557198399601472,0.07752811958864333,-9.801800382572354,,,,,,,,,,
acc,1778672596.0,15.0,-0.2592907192673062,0.07728491531243797,-9.80211078663326,,,,,,,,,,
acc,1778672596.0,15.0,-0.26318426635293946,0.07739911037962524,-9.802418364852477,,,,,,,,,,
acc,1778672596.0,15.0,-0.26704236872069304,0.0775122658775327,-9.802723143048226,,,,,,,,,,
acc,1778672596.0,15.0,-0.2708653501786585,0.07762439130322972,-9.802705484249076,,,,,,,,,,
acc,1778672596.0,15.0,-0.2746535315460032,0.07773549606612258,-9.80268798619562,,,,,,,,,,
acc,1778672596.0,15.0,-0.2784072306813879,0.07820075056398247,-9.802670647419633,,,,,,,,,,
acc,1778672596.0,15.0,-0.2824819199795894,0.07830661270608433,-9.802653466466433,,,,,,,,,,
acc,1778672596.0,15.0,-0.2865195213405177,0.07841151128797373,-9.802956091339603,,,,,,,,,,
acc,1778672596.0,15.0,-0.2905203734274301,0.07816029556651496,-9.803291475020732,,,,,,,,,,
acc,1778672596.0,15.0,-0.29448481178175495,0.0782665224108206,-9.803588293324022,,,,,,,,,,
acc,1778672596.0,15.0,-0.2987683216273156,0.0783717824596981,-9.803917922764235,,,,,,,,,,
acc,1778672596.0,15.0,-0.3030128473375045,0.07847608453902664,-9.803853890550212,,,,,,,,,,
acc,1778672596.0,15.0,-0.30721874476914235,0.078579437393389,-9.804181099223888,,,,,,,,,,
acc,1778672596.0,15.0,-0.31174150957845503,0.07868184968683986,-9.804114675483897,,,,,,,,,,
acc,1778672596.0,15.0,-0.3162231161348128,0.0787833300036664,-9.804048856215994,,,,,,,,,,
acc,1778672596.0,15.0,-0.3206639400508132,0.07888388684914122,-9.804374283766354,,,,,,,,,,
acc,1778672596.0,15.0,-0.32506435348249896,0.07898352865026759,-9.804306105442704,,,,,,,,,,
acc,1778672596.0,15.0,-0.32942472516193966,0.07908226375651724,-9.804629188822975,,,,,,,,,,
acc,1778672596.0,15.0,-0.3337454204294861,0.07918010044056072,-9.804558694238763,,,,,,,,,,
acc,1778672596.0,15.0,-0.3383464075854668,0.07927704689899039,-9.804524350884773,,,,,,,,,,
acc,1778672596.0,15.0,-0.34326064422229086,0.07901798884204209,-9.804845442427903,,,,,,,,,,
acc,1778672596.0,15.0,-0.3481301678441385,0.07911640753735126,-9.804808492796587,,,,,,,,,,
acc,1778672596.0,15.0,-0.3529553862959463,0.07921393077401409,-9.804771879350044,,,,,,,,,,
acc,1778672596.0,15.0,-0.35773670367510046,0.07931056671930536,-9.804735599022012,,,,,,,,,,
acc,1778672596.0,15.0,-0.36282963210232877,0.07905121172975119,-9.804664140328043,,,,,,,,,,
acc,1778672596.0,15.0,-0.36787622579347523,0.07879421631488262,-9.804593331755076,,,,,,,,,,
acc,1778672596.0,15.0,-0.3728769072741289,0.07853955895778236,-9.804913781999359,,,,,,,,,,
acc,1778672596.0,15.0,-0.37783209519044375,0.07828721833909155,-9.804840705035014,,,,,,,,,,
acc,1778672596.0,15.0,-0.38274220434547007,0.07803717333515955,-9.805158902139365,,,,,,,,,,
acc,1778672596.0,15.0,-0.3876076457351272,0.07743431266366281,-9.805119105129123,,,,,,,,,,
acc,1778672596.0,15.0,-0.39278391460974327,0.0768369361686897,-9.80507967014918,,,,,,,,,,
acc,1778672596.0,15.0,-0.3979130962863264,0.07660007959676744,-9.804685508157789,,,,,,,,,,
acc,1778672596.0,15.0,-0.4033507125851555,0.07636537760751211,-9.804614508655469,,,,,,,,,,
acc,1778672596.0,15.0,-0.4087388661483229,0.07613281056155102,-9.804544154993058,,,,,,,,,,
acc,1778672596.0,15.0,-0.41439758084934486,0.0759023589996094,-9.804509947379213,,,,,,,,,,
acc,1778672596.0,15.0,-0.4200048234945967,0.07567400364082967,-9.804476050920162,,,,,,,,,,
acc,1778672596.0,15.0,-0.425916138107643,0.07544772538110724,-9.804406957105726,,,,,,,,,,
acc,1778672596.0,15.0,-0.4317736848918528,0.07522350529144249,-9.804338491751226,,,,,,,,,,
acc,1778672596.0,15.0,-0.4375779538183695,0.07500132461630898,-9.804270649129679,,,,,,,,,,
acc,1778672596.0,15.0,-0.4433294303687223,0.07478116477203747,-9.804594006620212,,,,,,,,,,
acc,1778672596.0,15.0,-0.4493836716206849,0.07456300734521575,-9.804878918203404,,,,,,,,,,
acc,1778672596.0,15.0,-0.45573792283140135,0.07434683409110407,-9.80484166902169,,,,,,,,,,
acc,1778672596.0,15.0,-0.4620343821471258,0.07448769920411696,-9.804769254120883,,,,,,,,,,
acc,1778672596.0,15.0,-0.4686286374276714,0.07462728316939515,-9.80473300213988,,,,,,,,,,
acc,1778672596.0,15.0,-0.47548247524434367,0.07476559765827975,-9.805016644359007,,,,,,,,,,
acc,1778672596.0,15.0,-0.48227398029849977,0.07490265423525881,-9.804587573239486,,,,,,,,,,
acc,1778672596.0,15.0,-0.48935878552358153,0.07503846435895982,-9.804872534541062,,,,,,,,,,
acc,1778672596.0,15.0,-0.4960240959018416,0.0751730393831325,-9.805154904315883,,,,,,,,,,
acc,1778672596.0,15.0,-0.5026287907383741,0.07495132880910228,-9.805079644420227,,,,,,,,,,
acc,1778672596.0,15.0,-0.5098835332421677,0.07508669458699517,-9.805005068942124,,,,,,,,,,
acc,1778672596.0,15.0,-0.5170723016338789,0.07522082935813652,-9.80461162537037,,,,,,,,,,
acc,1778672596.0,15.0,-0.5241956967606548,0.07535374433369496,-9.804541304548902,,,,,,,,,,
acc,1778672596.0,15.0,-0.5316093693205216,0.0754854506222903,-9.80450712601075,,,,,,,,,,
acc,1778672596.0,15.0,-0.5389556251532414,0.07597100395984424,-9.804473258277419,,,,,,,,,,
acc,1778672596.0,15.0,-0.546590121399759,0.07609709871421094,-9.804759248330846,,,,,,,,,,
acc,1778672596.0,15.0,-0.5541551946041673,0.07622204684656625,-9.804723089294809,,,,,,,,,,
acc,1778672596.0,15.0,-0.5612964365949776,0.07634585879754237,-9.804687259060993,,,,,,,,,,
acc,1778672596.0,15.0,-0.5687277813437813,0.07646854491232526,-9.804971300539918,,,,,,,,,,
acc,1778672596.0,15.0,-0.5764110883901236,0.07659011544153739,-9.804897712648154,,,,,,,,,,
acc,1778672596.0,15.0,-0.5843795771053735,0.0767105805421121,-9.804824793883714,,,,,,,,,,
acc,1778672596.0,15.0,-0.5922756099821016,0.07682995027815953,-9.805143083679003,,,,,,,,,,
acc,1778672596.0,15.0,-0.6004548891983519,0.07659319207816291,-9.805103436819184,,,,,,,,,,
acc,1778672596.0,15.0,-0.6085597975605125,0.07635858662403558,-9.805383690300793,,,,,,,,,,
acc,1778672596.0,15.0,-0.6173010738608149,0.07612611431858257,-9.805306355606175,,,,,,,,,,
acc,1778672596.0,15.0,-0.625607841372472,0.0755407261098549,-9.805229724069308,,,,,,,,,,
acc,1778672596.0,15.0,-0.6341941096520631,0.07531568883340503,-9.80483426190638,,,,,,,,,,
acc,1778672596.0,15.0,-0.6427023097904974,0.07509269764278562,-9.80515245885739,,,,,,,,,,
acc,1778672596.0,15.0,-0.6511331523801406,0.07487173391410029,-9.805077226835339,,,,,,,,,,
acc,1778672596.0,15.0,-0.659132316670128,0.07500781313646537,-9.805393213435446,,,,,,,,,,
acc,1778672596.0,15.0,-0.6670587530527887,0.07478762233337605,-9.80535129430334,,,,,,,,,,
acc,1778672596.0,15.0,-0.6752681460463481,0.07456943347233544,-9.805664787974614,,,,,,,,,,
acc,1778672596.0,15.0,-0.6840774529000365,0.07435322833337694,-9.805939931103323,,,,,,,,,,
acc,1778672597.0,16.0,-0.6931616978342028,0.07413898886285913,-9.805893043441605,,,,,,,,,,
acc,1778672597.0,16.0,-0.7021633524461781,0.07392669717193383,-9.805846582063758,,,,,,,,,,
acc,1778672597.0,16.0,-0.7110831683408858,0.07407136293218958,-9.805765043077287,,,,,,,,,,
acc,1778672597.0,16.0,-0.7199218902637141,0.07456973075803142,-9.806074771682722,,,,,,,,,,
acc,1778672597.0,16.0,-0.72868025616365,0.07506356774143112,-9.805991159252956,,,,,,,,,,
acc,1778672597.0,16.0,-0.7373589972558172,0.07555291511166308,-9.805908306967687,,,,,,,,,,
acc,1778672597.0,16.0,-0.7463138524101345,0.07568279939509913,-9.805861707524981,,,,,,,,,,
acc,1778672597.0,16.0,-0.7558973335888243,0.07581150288270888,-9.805780032204304,,,,,,,,,,
acc,1778672597.0,16.0,-0.7653936907197705,0.07593903631858166,-9.806089620356444,,,,,,,,,,
acc,1778672597.0,16.0,-0.7744487050025552,0.07571038973491097,-9.805686361905291,,,,,,,,,,
acc,1778672597.0,16.0,-0.7834214008393958,0.0758388414736371,-9.805961300540197,,,,,,,,,,
acc,1778672597.0,16.0,-0.7923125271956541,0.07561110664637355,-9.805559210332952,,,,,,,,,,
acc,1778672597.0,16.0,-0.8014778350792695,0.07538544210818111,-9.80551578431616,,,,,,,,,,
acc,1778672597.0,16.0,-0.810559823695815,0.07480682100221442,-9.805827770182923,,,,,,,,,,
acc,1778672597.0,16.0,-0.8195592510665539,0.07423345994240893,-9.805746404719372,,,,,,,,,,
acc,1778672597.0,16.0,-0.8287963849331642,0.07437533288927384,-9.806056293186113,,,,,,,,,,
acc,1778672597.0,16.0,-0.8383045539036543,0.07451591613570781,-9.806363364602122,,,,,,,,,,
acc,1778672597.0,16.0,-0.8480812939165706,0.07501022617850743,-9.806667644594736,,,,,,,,,,
acc,1778672597.0,16.0,-0.8577691593602532,0.07550004274065157,-9.80732416254393,,,,,,,,,,
acc,1778672597.0,16.0,-0.8677239710250938,0.07598540669871184,-9.807229198477167,,,,,,,,,,
acc,1778672597.0,16.0,-0.8775882905442987,0.07611135608401852,-9.807525607651922,,,,,,,,,,
acc,1778672597.0,16.0,-0.8873629410808475,0.07659116229606441,-9.807428813217214,,,,,,,,,,
acc,1778672597.0,16.0,-0.8970487382946012,0.07671160597055335,-9.807723407046293,,,,,,,,,,
acc,1778672597.0,16.0,-0.9066464904111031,0.07683095479711188,-9.80801532298095,,,,,,,,,,
acc,1778672597.0,16.0,-0.9161569982897385,0.07694921873449147,-9.808304585379348,,,,,,,,,,
acc,1778672597.0,16.0,-0.9252260474815067,0.07635640071927055,-9.808946217299326,,,,,,,,,,
acc,1778672597.0,16.0,-0.9345676666731024,0.07576897139893263,-9.809227018558191,,,,,,,,,,
acc,1778672597.0,16.0,-0.9438243713529989,0.07518688176038554,-9.809114762738854,,,,,,,,,,
acc,1778672597.0,16.0,-0.952996933851664,0.07532008620838376,-9.809394031215772,,,,,,,,,,
acc,1778672597.0,16.0,-0.9624411248556994,0.0758070761580275,-9.810025757499465,,,,,,,,,,
acc,1778672597.0,16.0,-0.9717994703764473,0.07660913741323133,-9.810261248108265,,,,,,,,,,
acc,1778672597.0,16.0,-0.9810727511741789,0.07708441077972675,-9.810885090929997,,,,,,,,,,
acc,1778672597.0,16.0,-0.9902617408961719,0.07787486090330757,-9.811467765596564,,,,,,,,,,
acc,1778672597.0,16.0,-0.9993672061418368,0.07901312909240536,-9.81204514396856,,,,,,,,,,
acc,1778672597.0,16.0,-1.0087094023080594,0.07978604852062751,-9.812617274213304,,,,,,,,,,
acc,1778672597.0,16.0,-1.017966682242128,0.08023244720198267,-9.813219701513997,,,,,,,,,,
acc,1778672597.0,16.0,-1.0274948103572463,0.08067478834564491,-9.813106659643472,,,,,,,,,,
acc,1778672597.0,16.0,-1.036936333024495,0.08075811723895018,-9.812994645261421,,,,,,,,,,
acc,1778672597.0,16.0,-1.045937046762225,0.08048568856139952,-9.813558142967283,,,,,,,,,,
acc,1778672597.0,16.0,-1.0545364563994466,0.08092572626112138,-9.813406528662513,,,,,,,,,,
acc,1778672597.0,16.0,-1.0633771960267313,0.08029678516032893,-9.813256292429758,,,,,,,,,,
acc,1778672597.0,16.0,-1.0718180872522451,0.08002855019696696,-9.81381740984703,,,,,,,,,,
acc,1778672597.0,16.0,-1.079827259021856,0.08011775138480672,-9.814053935202836,,,,,,,,,,
acc,1778672597.0,16.0,-1.0881186313479976,0.0802061418042791,-9.813897816091682,,,,,,,,,,
acc,1778672597.0,16.0,-1.0963346419571893,0.080293728827943,-9.81413361008012,,,,,,,,,,
acc,1778672597.0,16.0,-1.1047954667468562,0.0803805197612269,-9.814367260904902,,,,,,,,,,
acc,1778672597.0,16.0,-1.1128599000548844,0.08082150893395638,-9.815308771323595,,,,,,,,,,
acc,1778672597.0,16.0,-1.1208510352087466,0.0822879711560709,-9.81517674621927,,,,,,,,,,
acc,1778672597.0,16.0,-1.129089028080989,0.08374110465963978,-9.815720405748227,,,,,,,,,,
acc,1778672597.0,16.0,-1.137252145874131,0.0848260358102968,-9.81590413821677,,,,,,,,,,
acc,1778672597.0,16.0,-1.1453410694017698,0.08590110606320812,-9.815766703065592,,,,,,,,,,
acc,1778672597.0,16.0,-1.1533564732796866,0.08629192289801906,-9.815985511022484,,,,,,,,,,
acc,1778672597.0,16.0,-1.160979538147364,0.08632420317516751,-9.816202330256534,,,,,,,,,,
acc,1778672597.0,16.0,-1.168533318011052,0.08671117411468147,-9.816417178849935,,,,,,,,,,
acc,1778672597.0,16.0,-1.1756634500907241,0.08812410051874466,-9.816594578172792,,,,,,,,,,
acc,1778672597.0,16.0,-1.183083770149451,0.08881420042915268,-9.816450869313911,,,,,,,,,,
acc,1778672597.0,16.0,-1.1907561350040938,0.08917854178163023,-9.81701844141162,,,,,,,,,,
acc,1778672597.0,16.0,-1.198358767706923,0.08953957172921707,-9.817225872508155,,,,,,,,,,
acc,1778672597.0,16.0,-1.2058923022563304,0.08989732037890576,-9.817431418322803,,,,,,,,,,
acc,1778672597.0,16.0,-1.2130378814954703,0.09092629377799492,-9.81795458138123,,,,,,,,,,
acc,1778672597.0,16.0,-1.2197635265451656,0.09127143966251872,-9.817763017741461,,,,,,,,,,
acc,1778672597.0,16.0,-1.2267830348095987,0.09125846761819287,-9.817963681551033,,,,,,,,,,
acc,1778672597.0,16.0,-1.2337387455509927,0.09124561347162645,-9.81777203559176,,,,,,,,,,
acc,1778672597.0,16.0,-1.2402762493611412,0.0908778867280156,-9.817937120844363,,,,,,,,,,
acc,1778672597.0,16.0,-1.247109325825878,0.09086849117453155,-9.818136201893763,,,,,,,,,,
acc,1778672597.0,16.0,-1.253525310948434,0.09121416068251914,-9.81904344201721,,,,,,,,,,
acc,1778672597.0,16.0,-1.2602379728257214,0.0915566885732891,-9.819232468909547,,,,,,,,,,
acc,1778672597.0,16.0,-1.2668896268429946,0.09154112437982519,-9.819419777835689,,,,,,,,,,
acc,1778672597.0,16.0,-1.2734808276296035,0.09117071383732639,-9.819569888359789,,,,,,,,,,
acc,1778672597.0,16.0,-1.2800121247683525,0.0904486913346944,-9.819363647118422,,,,,,,,,,
acc,1778672597.0,16.0,-1.2861290756456127,0.0893782436681769,-9.819194776274058,,,,,,,,,,
acc,1778672597.0,16.0,-1.2918354464431625,0.08902748935096945,-9.818636957328088,,,,,,,,,,
acc,1778672597.0,16.0,-1.297844942308056,0.08903490942488805,-9.818119713062908,,,,,,,,,,
acc,1778672597.0,16.0,-1.303799821853573,0.08868727573743435,-9.817962146925266,,,,,,,,,,
acc,1778672597.0,16.0,-1.3103750487054193,0.0890527644576887,-9.817451035840325,,,,,,,,,,
acc,1778672597.0,16.0,-1.3172454946502203,0.09008939811237447,-9.818009509019996,,,,,,,,,,
acc,1778672597.0,16.0,-1.323698523697232,0.09076162505704148,-9.817462463404018,,,,,,,,,,
acc,1778672597.0,16.0,-1.3297734256396292,0.09142774263391376,-9.817310870509848,,,,,,,,,,
acc,1778672597.0,16.0,-1.3357931174654716,0.09105836539818982,-9.81677017457966,,,,,,,,,,
acc,1778672597.0,16.0,-1.3420775809435683,0.09033736950791936,-9.816269897441982,,,,,,,,,,
acc,1778672597.0,16.0,-1.3479854503461801,0.09033288601936945,-9.816093646580889,,,,,,,,,,
acc,1778672597.0,16.0,-1.353484643783489,0.09032844327754098,-9.815599518078125,,,,,,,,,,
acc,1778672597.0,16.0,-1.3589338597002432,0.08996905693013994,-9.815464855186049,,,,,,,,,,
acc,1778672597.0,16.0,-1.3650080151534723,0.08996792047934667,-9.815295920480477,,,,,,,,,,
acc,1778672597.0,16.0,-1.3710269679639033,0.08996679435675255,-9.815519000209791,,,,,,,,,,
acc,1778672597.0,16.0,-1.3769912199264498,0.09064013125660725,-9.814994590401035,,,,,,,,,,
acc,1778672597.0,16.0,-1.3825817898810002,0.09130734881479194,-9.814865425109511,,,,,,,,,,
acc,1778672597.0,16.0,-1.3877665695299726,0.09196850265580332,-9.814737433680676,,,,,,,,,,
acc,1778672597.0,16.0,-1.3935786902642475,0.09297863051864676,-9.814930092528867,,,,,,,,,,
acc,1778672597.0,16.0,-1.3993379902554122,0.09397957830647262,-9.815121000487151,,,,,,,,,,
acc,1778672597.0,16.0,-1.4053999227446994,0.09429696964784365,-9.815665146582107,,,,,,,,,,
acc,1778672597.0,16.0,-1.4110517914817933,0.09461147653652038,-9.816594824943815,,,,,,,,,,
acc,1778672597.0,16.0,-1.4163328188689521,0.09559758423534878,-9.817480549862132,,,,,,,,,,
acc,1778672597.0,16.0,-1.4218853295133596,0.09657473021734807,-9.817648280325214,,,,,,,,,,
acc,1778672597.0,16.0,-1.4273873791931735,0.09825294965412727,-9.818524431087148,,,,,,,,,,
acc,1778672597.0,16.0,-1.4331943986988254,0.09991591753367592,-9.818327693989799,,,,,,,,,,
acc,1778672597.0,16.0,-1.438948644444998,0.10156377248536001,-9.818878193157776,,,,,,,,,,
acc,1778672597.0,16.0,-1.4446505961176663,0.1021317184497526,-9.819068717687188,,,,,,,,,,
acc,1778672597.0,16.0,-1.450300729040495,0.10304948363765204,-9.819257510749289,,,,,,,,,,
acc,1778672597.0,16.0,-1.4555445428212404,0.10466886015664864,-9.819409092760212,,,,,,,,,,
acc,1778672597.0,16.0,-1.4607407015049214,0.10591854877334486,-9.81991426843284,,,,,,,,,,
acc,1778672597.0,16.0,-1.4665995894278419,0.10715688039911411,-9.820095377380373,,,,,,,,,,
acc,1778672597.0,16.0,-1.4724052326937582,0.10802897829280503,-9.82062981131871,,,,,,,,,,
acc,1778672597.0,16.0,-1.4774481647369089,0.10750874492446465,-9.820768922441903,,,,,,,,,,
acc,1778672597.0,16.0,-1.4821257922139868,0.10734821898383676,-9.82094226458642,,,,,,,,,,
acc,1778672597.0,16.0,-1.4867609103202037,0.10786359744012561,-9.820759051948624,,,,,,,,,,
acc,1778672597.0,16.0,-1.4920283507004573,0.10872927156979116,-9.820932483636065,,,,,,,,,,
acc,1778672597.0,16.0,-1.4976029009042315,0.10958707864168457,-9.821459309300177,,,,,,,,,,
acc,1778672597.0,16.0,-1.5027718118530005,0.11043709015991063,-9.821626377357997,,,,,,,,,,
acc,1778672597.0,16.0,-1.5065093468200492,0.11092439810308125,-9.821436948266271,,,,,,,,,,
acc,1778672597.0,16.0,-1.510567894742768,0.11108780301848509,-9.820894271015352,,,,,,,,,,
acc,1778672597.0,16.0,-1.5149445382388282,0.11124972295305471,-9.82067599984037,,,,,,,,,,
acc,1778672597.0,16.0,-1.5199558516019147,0.11243960254211847,-9.821205155181525,,,,,,,,,,
acc,1778672597.0,16.0,-1.5245666543531011,0.11464809049745563,-9.821374532486137,,,,,,,,,,
acc,1778672597.0,16.0,-1.5288160814931069,0.11719147745516292,-9.821506875448412,,,,,,,,,,
acc,1778672597.0,16.0,-1.5330268911376999,0.1193567819329451,-9.82167351079646,,,,,,,,,,
acc,1778672597.0,16.0,-1.5375189080345555,0.12011801039182397,-9.821803136749878,,,,,,,,,,
acc,1778672597.0,16.0,-1.542325071642927,0.12051734326810312,-9.820937650538509,,,,,,,,,,
acc,1778672597.0,16.0,-1.5470875584475896,0.1212680248019324,-9.82071898573032,,,,,,,,,,
acc,1778672597.0,16.0,-1.5511323235406496,0.12236686193862223,-9.82053780310011,,,,,,,,,,
acc,1778672597.0,16.0,-1.5554598045551153,0.12345571323254163,-9.821032717724721,,,,,,,,,,
acc,1778672597.0,16.0,-1.5601029272054905,0.12453466944150375,-9.82081318923552,,,,,,,,,,
acc,1778672597.0,16.0,-1.5650588320680112,0.12595878859282297,-9.821341096008068,,,,,,,,,,
acc,1778672597.0,16.0,-1.5696147224888168,0.12666002084433836,-9.821118765336694,,,,,,,,,,
acc,1778672597.0,16.0,-1.5741292107538871,0.12735488057057281,-9.821288927044387,,,,,,,,,,
acc,1778672597.0,16.0,-1.578602673148451,0.1280434256884896,-9.821812510148003,,,,,,,,,,
acc,1778672597.0,16.0,-1.5833904592735528,0.12872571358851082,-9.821585895807711,,,,,,,,,,
acc,1778672597.0,16.0,-1.58813473598572,0.13011174531288525,-9.821751812411767,,,,,,,,,,
acc,1778672597.0,16.0,-1.592835898718821,0.1311302139287317,-9.821525749783476,,,,,,,,,,
acc,1778672597.0,16.0,-1.5971393628882538,0.13213942714088603,-9.821692212854604,,,,,,,,,,
acc,1778672597.0,16.0,-1.6014037190642203,0.1334944363019619,-9.822212130418029,,,,,,,,,,
acc,1778672598.0,17.0,-1.6056293226756617,0.1344821646081082,-9.822372356066024,,,,,,,,,,
acc,1778672598.0,17.0,-1.6101715020473988,0.13510594076090104,-9.822140654642526,,,,,,,,,,
acc,1778672598.0,17.0,-1.6146724041891825,0.13678895824462825,-9.822266034846397,,,,,,,,,,
acc,1778672598.0,17.0,-1.6191324042420654,0.13877616232492992,-9.822070794583182,,,,,,,,,,
acc,1778672598.0,17.0,-1.6242618165422313,0.1400708598932225,-9.821486857865775,,,,,,,,,,
acc,1778672598.0,17.0,-1.6289896394640277,0.1420282394507449,-9.821653674045015,,,,,,,,,,
acc,1778672598.0,17.0,-1.6340294739139805,0.14396783130141244,-9.821428503772362,,,,,,,,,,
acc,1778672598.0,17.0,-1.6390235088505198,0.14588979710426767,-9.820885908073897,,,,,,,,,,
acc,1778672598.0,17.0,-1.6439721605099389,0.1471198499689856,-9.821022690291992,,,,,,,,,,
acc,1778672598.0,17.0,-1.6485208659334287,0.14901317166057948,-9.821548690642054,,,,,,,,,,
acc,1778672598.0,17.0,-1.6526732688271888,0.15056980729921124,-9.821359969401524,,,,,,,,,,
acc,1778672598.0,17.0,-1.6571429030128628,0.15140236472419813,-9.821492443610616,,,,,,,,,,
acc,1778672598.0,17.0,-1.6612169534431411,0.1522273563072089,-9.822014174836355,,,,,,,,,,
acc,1778672598.0,17.0,-1.665253981080345,0.15304485080760163,-9.82217619884392,,,,,,,,,,
acc,1778672598.0,17.0,-1.6696092883188633,0.15385491635970575,-9.821342833146876,,,,,,,,,,
acc,1778672598.0,17.0,-1.6735700510520064,0.15430264553932782,-9.821865923581626,,,,,,,,,,
acc,1778672598.0,17.0,-1.6771398456939488,0.154391331137873,-9.821638825055288,,,,,,,,,,
acc,1778672598.0,17.0,-1.6806772000323682,0.15380477415286878,-9.821058815480812,,,,,,,,,,
acc,1778672598.0,17.0,-1.6841824088861623,0.15357851310205645,-9.821548991784933,,,,,,,,,,
acc,1778672598.0,17.0,-1.6880107390463106,0.1543837283126089,-9.821324773428797,,,,,,,,,,
acc,1778672598.0,17.0,-1.6910943394590172,0.15589155718154127,-9.820783121876492,,,,,,,,,,
acc,1778672598.0,17.0,-1.6941499178964878,0.15806012899402402,-9.820210888727232,,,,,,,,,,
acc,1778672598.0,17.0,-1.697887668834359,0.1612739083548764,-9.819643855698592,,,,,,,,,,
acc,1778672598.0,17.0,-1.7012364789088035,0.16584285834790974,-9.820182384311924,,,,,,,,,,
acc,1778672598.0,17.0,-1.7041998917527892,0.168985913120674,-9.8199705848361,,,,,,,,,,
acc,1778672598.0,17.0,-1.7074913400470342,0.17210040569411322,-9.819796204766746,,,,,,,,,,
acc,1778672598.0,17.0,-1.71075287764619,0.17554156074908128,-9.821043287972053,,,,,,,,,,
acc,1778672598.0,17.0,-1.713629811326364,0.17788654044469748,-9.821178639520673,,,,,,,,,,
acc,1778672598.0,17.0,-1.7164806011966995,0.18056517539244207,-9.82095778699994,,,,,,,,,,
acc,1778672598.0,17.0,-1.7200154238002423,0.18148012040096018,-9.821839349096818,,,,,,,,,,
acc,1778672598.0,17.0,-1.7238730890091516,0.18203178608336537,-9.82196746659858,,,,,,,,,,
acc,1778672598.0,17.0,-1.7273407333537332,0.1818684907615588,-9.822839853237907,,,,,,,,,,
acc,1778672598.0,17.0,-1.730421892082041,0.18206165321556417,-9.823349338326626,,,,,,,,,,
acc,1778672598.0,17.0,-1.7334750511954762,0.18296299883815362,-9.822789290322296,,,,,,,,,,
acc,1778672598.0,17.0,-1.7368554388930044,0.18421111826398676,-9.82397367848495,,,,,,,,,,
acc,1778672598.0,17.0,-1.740205107800296,0.18576737463137857,-9.824792329997887,,,,,,,,,,
acc,1778672598.0,17.0,-1.744234275276636,0.18801942694092666,-9.82418366574867,,,,,,,,,,
acc,1778672598.0,17.0,-1.7482268283008904,0.18954107597179326,-9.82574585064249,,,,,,,,,,
acc,1778672598.0,17.0,-1.751828126076034,0.19037445388615537,-9.826193433259995,,,,,,,,,,
acc,1778672598.0,17.0,-1.7560711409018306,0.19155522301559322,-9.82667244316438,,,,,,,,,,
acc,1778672598.0,17.0,-1.7599561282788012,0.19304474092310184,-9.82750207358839,,,,,,,,,,
acc,1778672598.0,17.0,-1.7638058114764859,0.19523066079169488,-9.827933696871947,,,,,,,,,,
acc,1778672598.0,17.0,-1.7682949452497778,0.19775168074800198,-9.8280419281963,,,,,,,,,,
acc,1778672598.0,17.0,-1.7717138776536479,0.19886541092252635,-9.828149175987182,,,,,,,,,,
acc,1778672598.0,17.0,-1.7751017411114376,0.20028849893268866,-9.828965386620544,,,,,,,,,,
acc,1778672598.0,17.0,-1.7791332607233625,0.20169865488598487,-9.829064242735296,,,,,,,,,,
acc,1778672598.0,17.0,-1.7828086751400145,0.20206658954144488,-9.828807227336755,,,,,,,,,,
acc,1778672598.0,17.0,-1.7871251234192924,0.20278614470649964,-9.828872026065062,,,,,,,,,,
acc,1778672598.0,17.0,-1.7914023467916351,0.20417360356654157,-9.829681667629934,,,,,,,,,,
acc,1778672598.0,17.0,-1.7942563313481317,0.2048740117214486,-9.829383547081925,,,,,,,,,,
acc,1778672598.0,17.0,-1.79779431781719,0.20521309112800393,-9.829123630221305,,,,,,,,,,
acc,1778672598.0,17.0,-1.8009451805619638,0.20554908921774384,-9.828866075303576,,,,,,,,,,
acc,1778672598.0,17.0,-1.8040674104761847,0.20588203399251928,-9.827971922301316,,,,,,,,,,
acc,1778672598.0,17.0,-1.8078357099102915,0.2065669170110755,-9.827085894731763,,,,,,,,,,
acc,1778672598.0,17.0,-1.8112502964895227,0.207920018373316,-9.827201830044899,,,,,,,,,,
acc,1778672598.0,17.0,-1.8139239171664265,0.20961578744938575,-9.826287296987287,,,,,,,,,,
acc,1778672598.0,17.0,-1.816218269094277,0.21062170464485924,-9.826729958434047,,,,,,,,,,
acc,1778672598.0,17.0,-1.8192017080162235,0.21161848078454631,-9.825464749875284,,,,,,,,,,
acc,1778672598.0,17.0,-1.8225130083084584,0.21363561346769286,-9.825914885873829,,,,,,,,,,
acc,1778672598.0,17.0,-1.825084281603089,0.2156344159027976,-9.826041462303458,,,,,,,,,,
acc,1778672598.0,17.0,-1.827277216371688,0.21832499088803356,-9.825172977788686,,,,,,,,,,
acc,1778672598.0,17.0,-1.8294502233407275,0.22166555750067335,-9.824915828891713,,,,,,,,,,
acc,1778672598.0,17.0,-1.8319584561947215,0.2246562894198014,-9.824022069749933,,,,,,,,,,
acc,1778672598.0,17.0,-1.835153832091061,0.22761984375253888,-9.82342040685009,,,,,,,,,,
acc,1778672598.0,17.0,-1.8376102347853307,0.23087594547713222,-9.823179183949387,,,,,,,,,,
acc,1778672598.0,17.0,-1.8396893430007644,0.23410245814380945,-9.821946242833768,,,,,,,,,,
acc,1778672598.0,17.0,-1.8424594936632932,0.23729965064357522,-9.821114972766098,,,,,,,,,,
acc,1778672598.0,17.0,-1.8448495078946607,0.2387284399212445,-9.819900789709058,,,,,,,,,,
acc,1778672598.0,17.0,-1.8475727667736614,0.23978928209918665,-9.81869764024651,,,,,,,,,,
acc,1778672598.0,17.0,-1.8513006831635135,0.2415504198104949,-9.818144361676842,,,,,,,,,,
acc,1778672598.0,17.0,-1.8543202910061252,0.24436045250692454,-9.81830605559937,,,,,,,,,,
acc,1778672598.0,17.0,-1.8562475510169794,0.24746442755084438,-9.81811130784082,,,,,,,,,,
acc,1778672598.0,17.0,-1.858512269836716,0.2505401959994955,-9.817598861093654,,,,,,,,,,
acc,1778672598.0,17.0,-1.860756408596355,0.2542979405553932,-9.817801006539945,,,,,,,,,,
acc,1778672598.0,17.0,-1.8633351174788213,0.256992133488978,-9.817255876043061,,,,,,,,,,
acc,1778672598.0,17.0,-1.866564833871341,0.25966184363555256,-9.81710616600041,,,,,,,,,,
acc,1778672598.0,17.0,-1.869090760232499,0.2629817342997665,-9.817277294114998,,,,,,,,,,
acc,1778672598.0,17.0,-1.871593732895524,0.26524205246115345,-9.816452948690815,,,,,,,,,,
acc,1778672598.0,17.0,-1.8733640252344983,0.2671268584222047,-9.816310535016786,,,,,,,,,,
acc,1778672598.0,17.0,-1.8747632674680412,0.26899453670671813,-9.81581445244822,,,,,,,,,,
acc,1778672598.0,17.0,-1.8772146926016684,0.2701353078375552,-9.8156778409164,,,,,,,,,,
acc,1778672598.0,17.0,-1.8803182816617792,0.2709107495202077,-9.816252405883981,,,,,,,,,,
acc,1778672598.0,17.0,-1.8827192271374837,0.2720341075589944,-9.816431292193569,,,,,,,,,,
acc,1778672598.0,17.0,-1.8857727951849401,0.2731472573859705,-9.816963515874201,,,,,,,,,,
acc,1778672598.0,17.0,-1.8891535776957515,0.2746052637850967,-9.817845866047813,,,,,,,,,,
acc,1778672598.0,17.0,-1.8918292069267837,0.27675995585737023,-9.818400729670051,,,,,,,,,,
acc,1778672598.0,17.0,-1.89448052211515,0.278185132894354,-9.818240616256787,,,,,,,,,,
acc,1778672598.0,17.0,-1.89675277225607,0.2803072938553291,-9.819856799435849,,,,,,,,,,
acc,1778672598.0,17.0,-1.899004373957594,0.28241017027046916,-9.820393389279413,,,,,,,,,,
acc,1778672598.0,17.0,-1.9019099551409644,0.28413896546907347,-9.820179673801272,,,,,,,,,,
acc,1778672598.0,17.0,-1.9047891326744206,0.28620702262635667,-9.821068301471833,,,,,,,,,,
acc,1778672598.0,17.0,-1.9069677062889194,0.28754635222952063,-9.820883947440603,,,,,,,,,,
acc,1778672598.0,17.0,-1.909481454596628,0.28958344569018846,-9.820665774214229,,,,,,,,,,
acc,1778672598.0,17.0,-1.9116173880935738,0.29298639329710907,-9.821514480927538,,,,,,,,,,
acc,1778672598.0,17.0,-1.9130239773469364,0.2970683612455226,-9.822390978806126,,,,,,,,,,
acc,1778672598.0,17.0,-1.9144177846268438,0.3000483291550723,-9.822904539956264,,,,,,,,,,
acc,1778672598.0,17.0,-1.9165088605806473,0.30300121747115716,-9.823022977112723,,,,,,,,,,
acc,1778672598.0,17.0,-1.9189359062646345,0.30628223496168017,-9.824205235151538,,,,,,,,,,
acc,1778672598.0,17.0,-1.920630962455316,0.309533437166524,-9.823956880913913,,,,,,,,,,
acc,1778672598.0,17.0,-1.922665577974734,0.31449444110794356,-9.82445621236422,,,,,,,,,,
acc,1778672598.0,17.0,-1.9243267418890104,0.31905539166648655,-9.824241071925346,,,,,,,,,,
acc,1778672598.0,17.0,-1.926327773090629,0.32148059647871824,-9.824702326397487,,,,,,,,,,
acc,1778672598.0,17.0,-1.9279556579104615,0.32459368817721024,-9.82483992119367,,,,,,,,,,
acc,1778672598.0,17.0,-1.9292137781349747,0.3280334622639205,-9.824976265638266,,,,,,,,,,
acc,1778672598.0,17.0,-1.930815437233196,0.3317969500994331,-9.82472090498963,,,,,,,,,,
acc,1778672598.0,17.0,-1.9327575042987981,0.3341063699500032,-9.825887733276627,,,,,,,,,,
acc,1778672598.0,17.0,-1.9346819234169597,0.3371047287413656,-9.826334024181472,,,,,,,,,,
acc,1778672598.0,17.0,-1.936233892426354,0.34078578409868826,-9.827166725610013,,,,,,,,,,
acc,1778672598.0,17.0,-1.9367423561770933,0.344433388986026,-9.828311328203284,,,,,,,,,,
acc,1778672598.0,17.0,-1.937246199418815,0.3473379041907667,-9.828061155802871,,,,,,,,,,
acc,1778672598.0,17.0,-1.9391298287678704,0.350216025503794,-9.828842658902563,,,,,,,,,,
acc,1778672598.0,17.0,-1.9416707808315041,0.3527130302941601,-9.82997203190056,,,,,,,,,,
acc,1778672598.0,17.0,-1.9435142031843502,0.35589727834588897,-9.829706768454978,,,,,,,,,,
acc,1778672598.0,17.0,-1.9442759775551537,0.3594075620709278,-9.831183260616825,,,,,,,,,,
acc,1778672598.0,17.0,-1.9443563899923428,0.3614660792376457,-9.831936392555013,,,,,,,,,,
acc,1778672598.0,17.0,-1.9451105112290348,0.3656001886020941,-9.831298316257769,,,,,,,,,,
acc,1778672598.0,17.0,-1.9465677135488169,0.3686673286202037,-9.83208590612828,,,,,,,,,,
acc,1778672598.0,17.0,-1.948011673998892,0.3692573272773653,-9.832156405121516,,,,,,,,,,
acc,1778672598.0,17.0,-1.948413111060481,0.3709068607805538,-9.832545731450635,,,,,,,,,,
acc,1778672598.0,17.0,-1.9488109001892036,0.3725414046675456,-9.832257080464785,,,,,,,,,,
acc,1778672598.0,17.0,-1.9484951316142305,0.37309619894654633,-9.830586688343734,,,,,,,,,,
acc,1778672598.0,17.0,-1.9488921753851072,0.37329098025875307,-9.829321932163268,,,,,,,,,,
acc,1778672598.0,17.0,-1.9499600414323288,0.3731290292059732,-9.829737015732418,,,,,,,,,,
acc,1778672598.0,17.0,-1.9503437733210385,0.3740334459425563,-9.829828859437246,,,,,,,,,,
acc,1778672598.0,17.0,-1.950724018168649,0.3756395778296081,-9.830594298787883,,,,,,,,,,
acc,1778672598.0,17.0,-1.951100807662831,0.3779055538210301,-9.830642857811592,,,,,,,,,,
acc,1778672598.0,17.0,-1.9525035748095638,0.38050590079308616,-9.83143640369341,,,,,,,,,,
acc,1778672598.0,17.0,-1.9546035284502281,0.38272765564652683,-9.832187234982214,,,,,,,,,,
acc,1778672598.0,17.0,-1.9570038673185373,0.38425478175968025,-9.832931243333539,,,,,,,,,,
acc,1778672599.0,18.0,-1.9590629260108376,0.3888917386748294,-9.83366849074917,,,,,,,,,,
acc,1778672599.0,18.0,-1.9611032736734988,0.3913922522543251,-9.83336963717096,,,,,,,,,,
acc,1778672599.0,18.0,-1.9634445481934388,0.39351508096344845,-9.832434563617616,,,,,,,,,,
acc,1778672599.0,18.0,-1.9654450792948976,0.39909728924050014,-9.831507987241336,,,,,,,,,,
acc,1778672599.0,18.0,-1.9667174976413544,0.4032444073518209,-9.830838300763812,,,,,,,,,,
acc,1778672599.0,18.0,-1.9679783533012605,0.40561449583593345,-9.829890726418475,,,,,,,,,,
acc,1778672599.0,18.0,-1.9688727800309458,0.40622371199962154,-9.831365545989145,,,,,,,,,,
acc,1778672599.0,18.0,-1.9701140502591006,0.4075373256406015,-9.831052125252475,,,,,,,,,,
acc,1778672599.0,18.0,-1.971344040851448,0.4108978139812205,-9.831486980541177,,,,,,,,,,
acc,1778672599.0,18.0,-1.97220788301641,0.4128433923971306,-9.831562922020257,,,,,,,,,,
acc,1778672599.0,18.0,-1.9727089131029054,0.41338691844866055,-9.830608763042077,,,,,,,,,,
acc,1778672599.0,18.0,-1.9735603524335363,0.41530987791811214,-9.829663274668718,,,,,,,,,,
acc,1778672599.0,18.0,-1.9740490924085754,0.41859973563129427,-9.828761881596304,,,,,,,,,,
acc,1778672599.0,18.0,-1.9735039808223922,0.42221466002680746,-9.827478213972947,,,,,,,,,,
acc,1778672599.0,18.0,-1.9743481952019244,0.4247673338057406,-9.826880650276118,,,,,,,,,,
acc,1778672599.0,18.0,-1.9751847380638097,0.4269418397624174,-9.827708383556633,,,,,,,,,,
acc,1778672599.0,18.0,-1.974984277971492,0.4308359292503983,-9.826789251456029,,,,,,,,,,
acc,1778672599.0,18.0,-1.974785639493436,0.43295528890157714,-9.825913975146348,,,,,,,,,,
acc,1778672599.0,18.0,-1.9742338348493222,0.43643976191633593,-9.826395521470962,,,,,,,,,,
acc,1778672599.0,18.0,-1.9740420157656609,0.4395376088146723,-9.8247783953272,,,,,,,,,,
acc,1778672599.0,18.0,-1.9745263787188367,0.442287837335432,-9.824560327474076,,,,,,,,,,
acc,1778672599.0,18.0,-1.9739769300457395,0.44639743725042985,-9.82466371805221,,,,,,,,,,
acc,1778672599.0,18.0,-1.9737874455040076,0.4497597592415194,-9.823097823541014,,,,,,,,,,
acc,1778672599.0,18.0,-1.973599682839312,0.45273656515469973,-9.823924428318287,,,,,,,,,,
acc,1778672599.0,18.0,-1.9734136264045863,0.45675121573923466,-9.823075185185433,,,,,,,,,,
acc,1778672599.0,18.0,-1.9732292606949544,0.46211375670609,-9.823227565853365,,,,,,,,,,
acc,1778672599.0,18.0,-1.972691599169318,0.46778253857023133,-9.822384655239508,,,,,,,,,,
acc,1778672599.0,18.0,-1.9718038613767126,0.47375476938058114,-9.822862778541943,,,,,,,,,,
acc,1778672599.0,18.0,-1.9716341238450799,0.4782528630770254,-9.822271652650604,,,,,,,,,,
acc,1778672599.0,18.0,-1.9728503008225418,0.4834200151054726,-9.821437428599062,,,,,,,,,,
acc,1778672599.0,18.0,-1.972671054148904,0.4885402123939975,-9.822314625009414,,,,,,,,,,
acc,1778672599.0,18.0,-1.9728484074679933,0.4922295095950507,-9.821480010487063,,,,,,,,,,
acc,1778672599.0,18.0,-1.9730241491491478,0.49655972037636803,-9.8226762875924,,,,,,,,,,
acc,1778672599.0,18.0,-1.973198293837649,0.5001761430391133,-9.822477321942587,,,,,,,,,,
acc,1778672599.0,18.0,-1.9733708560456917,0.5016653975384895,-9.822280164325255,,,,,,,,,,
acc,1778672599.0,18.0,-1.972831907895281,0.5041705288596868,-9.822759237094843,,,,,,,,,,
acc,1778672599.0,18.0,-1.9730077995005444,0.5059784568812055,-9.822559517679242,,,,,,,,,,
acc,1778672599.0,18.0,-1.974211493549517,0.5070600228236205,-9.82307154629739,,,,,,,,,,
acc,1778672599.0,18.0,-1.9761141825837156,0.5105810274760223,-9.822478523388162,,,,,,,,,,
acc,1778672599.0,18.0,-1.9769346773402348,0.5137150741830214,-9.822600831591734,,,,,,,,,,
acc,1778672599.0,18.0,-1.976363344268139,0.5182050040934734,-9.823431952398652,,,,,,,,,,
acc,1778672599.0,18.0,-1.976826612821746,0.5212697705489924,-9.823190625551256,,,,,,,,,,
acc,1778672599.0,18.0,-1.978350566698234,0.5250166201002442,-9.824726328988959,,,,,,,,,,
acc,1778672599.0,18.0,-1.9795057101630482,0.5318531270781817,-9.82486370543719,,,,,,,,,,
acc,1778672599.0,18.0,-1.9802953855712555,0.53862750965497,-9.823295994108832,,,,,,,,,,
acc,1778672599.0,18.0,-1.9804034554644885,0.5449853612825241,-9.824475768908501,,,,,,,,,,
acc,1778672599.0,18.0,-1.9811849729142812,0.5516404092087844,-9.823586012455477,,,,,,,,,,
acc,1778672599.0,18.0,-1.982669321659795,0.559264382359921,-9.82444368418254,,,,,,,,,,
acc,1778672599.0,18.0,-1.9830752868565278,0.5633403987657382,-9.825258058646183,,,,,,,,,,
acc,1778672599.0,18.0,-1.9824481532471923,0.56496561250054,-9.826065032763793,,,,,,,,,,
acc,1778672599.0,18.0,-1.983566061266703,0.5662210866037762,-9.825160834481727,,,,,,,,,,
acc,1778672599.0,18.0,-1.9846738106847115,0.5653708472961086,-9.82667863419449,,,,,,,,,,
acc,1778672599.0,18.0,-1.9847420931957176,0.5666226389470066,-9.826762775373398,,,,,,,,,,
acc,1778672599.0,18.0,-1.9840998131052632,0.5692474270381994,-9.827946541315313,,,,,,,,,,
acc,1778672599.0,18.0,-1.9834633695118937,0.5725582962936278,-9.828729084766342,,,,,,,,,,
acc,1778672599.0,18.0,-1.9842170810134396,0.5775784127713282,-9.82989498255151,,,,,,,,,,
acc,1778672599.0,18.0,-1.9856738764241828,0.5832273493099097,-9.8310502856464,,,,,,,,,,
acc,1778672599.0,18.0,-1.986762471760943,0.5867306485029777,-9.831130195380222,,,,,,,,,,
acc,1778672599.0,18.0,-1.9871312418800955,0.5874333694931236,-9.831883808484465,,,,,,,,,,
acc,1778672599.0,18.0,-1.986822222326091,0.5884846757852844,-9.8322756114458,,,,,,,,,,
acc,1778672599.0,18.0,-1.9875454114203839,0.5905558292395007,-9.83159895002945,,,,,,,,,,
acc,1778672599.0,18.0,-1.988262028786418,0.5936730658060437,-9.833093739905594,,,,,,,,,,
acc,1778672599.0,18.0,-1.9879427336193607,0.5981463471228935,-9.834184481000321,,,,,,,,,,
acc,1778672599.0,18.0,-1.9883007785156026,0.6018690370172045,-9.834555377410709,,,,,,,,,,
acc,1778672599.0,18.0,-1.9893655027545276,0.604883468782658,-9.836378263706228,,,,,,,,,,
acc,1778672599.0,18.0,-1.9907755136135918,0.6088999084531664,-9.835025385829182,,,,,,,,,,
acc,1778672599.0,18.0,-1.9918177495671996,0.6139092506255693,-9.83506917325856,,,,,,,,,,
acc,1778672599.0,18.0,-1.9911111720646575,0.6168142711940945,-9.834367126389507,,,,,,,,,,
acc,1778672599.0,18.0,-1.9897010914963074,0.62001236095339,-9.834381401140252,,,,,,,,,,
acc,1778672599.0,18.0,-1.988658786457856,0.6238913221175845,-9.83372110762581,,,,,,,,,,
acc,1778672599.0,18.0,-1.9883358859178124,0.6277350345848681,-9.83306681429672,,,,,,,,,,
acc,1778672599.0,18.0,-1.9886903581614939,0.6311888476663845,-9.832134493463316,,,,,,,,,,
acc,1778672599.0,18.0,-1.9883671707295447,0.6349662464334511,-9.831494617930543,,,,,,,,,,
acc,1778672599.0,18.0,-1.988401891144439,0.6383543484236445,-9.831534995570596,,,,,,,,,,
acc,1778672599.0,18.0,-1.9894656964794672,0.6438059665494491,-9.831965462571365,,,,,,,,,,
acc,1778672599.0,18.0,-1.9905198348582451,0.6481786445931339,-9.831327123059276,,,,,,,,,,
acc,1778672599.0,18.0,-1.9908544612379113,0.6514466835904528,-9.830410611077285,,,,,,,,,,
acc,1778672599.0,18.0,-1.99086657929255,0.6546850254357448,-9.828402029333521,,,,,,,,,,
acc,1778672599.0,18.0,-1.9901686452625003,0.6592783113778113,-9.82715712711891,,,,,,,,,,
acc,1778672599.0,18.0,-1.989832024442459,0.6635103899333649,-9.82517811026726,,,,,,,,,,
acc,1778672599.0,18.0,-1.9894984625452488,0.6680234784893347,-9.825275886899595,,,,,,,,,,
acc,1778672599.0,18.0,-1.9888129607973912,0.6728505269240526,-9.825017804044785,,,,,,,,,,
acc,1778672599.0,18.0,-1.9874237645297639,0.6779886731495873,-9.825117037401142,,,,,,,,,,
acc,1778672599.0,18.0,-1.9864021539772159,0.6841095286600165,-9.825215369009463,,,,,,,,,,
acc,1778672599.0,18.0,-1.9864547307730858,0.6884354298419143,-9.825312807064082,,,,,,,,,,
acc,1778672599.0,18.0,-1.987181259187705,0.6930769918962603,-9.825089883087184,,,,,,,,,,
acc,1778672599.0,18.0,-1.987546223653322,0.6987412701239171,-9.82522395581942,,,,,,,,,,
acc,1778672599.0,18.0,-1.9865235003201906,0.7050285147012016,-9.823972438899744,,,,,,,,,,
acc,1778672599.0,18.0,-1.9862200034610396,0.7105841877034343,-9.823726200669936,,,,,,,,,,
acc,1778672599.0,18.0,-1.985564293561218,0.7167638139613337,-9.823872665373464,,,,,,,,,,
acc,1778672599.0,18.0,-1.9852695131515279,0.7215029137654275,-9.824337266633018,,,,,,,,,,
acc,1778672599.0,18.0,-1.9860068117819352,0.7241046445693275,-9.82309380720809,,,,,,,,,,
acc,1778672599.0,18.0,-1.986382448604428,0.7273926749788675,-9.825375817028657,,,,,,,,,,
acc,1778672599.0,18.0,-1.9853703006892813,0.7302958556257997,-9.825116826111355,,,,,,,,,,
acc,1778672599.0,18.0,-1.9836929118609254,0.7345570259146174,-9.824540721186182,,,,,,,,,,
acc,1778672599.0,18.0,-1.982705204152265,0.7408737784045251,-9.825389717037075,,,,,,,,,,
acc,1778672599.0,18.0,-1.9817264718863266,0.7464231877539479,-9.825840532622452,,,,,,,,,,
acc,1778672599.0,18.0,-1.9804016716418187,0.7526321107134598,-9.825257851282856,,,,,,,,,,
acc,1778672599.0,18.0,-1.9801538047108234,0.7594945360109754,-9.825709865146774,,,,,,,,,,
acc,1778672599.0,18.0,-1.980263161126429,0.7659396396034267,-9.826867704296516,,,,,,,,,,
acc,1778672599.0,18.0,-1.9806909912918278,0.7723261756109943,-9.82663065076729,,,,,,,,,,
acc,1778672599.0,18.0,-1.9787011621999486,0.778299714392567,-9.82778012259963,,,,,,,,,,
acc,1778672599.0,18.0,-1.9763744440316364,0.7835090288887705,-9.826860339375486,,,,,,,,,,
acc,1778672599.0,18.0,-1.975808202147546,0.7890259765335912,-9.828043218353686,,,,,,,,,,
acc,1778672599.0,18.0,-1.9759570476583335,0.7934633906142974,-9.828824883036413,,,,,,,,,,
acc,1778672599.0,18.0,-1.9771339408531188,0.796476110076505,-9.827540644090956,,,,,,,,,,
acc,1778672599.0,18.0,-1.976560797321987,0.7991064906780019,-9.830456683160133,,,,,,,,,,
acc,1778672599.0,18.0,-1.9742535289932326,0.8010030267685924,-9.82915761582892,,,,,,,,,,
acc,1778672599.0,18.0,-1.9729966364822853,0.8022078994425922,-9.83028412474589,,,,,,,,,,
acc,1778672599.0,18.0,-1.9721061273764424,0.8030468523360507,-9.83211032968824,,,,,,,,,,
acc,1778672599.0,18.0,-1.9715786722959252,0.8042331524734584,-9.832500074103914,,,,,,,,,,
acc,1778672599.0,18.0,-1.9707010484346101,0.8071480055421105,-9.836009981036149,,,,,,,,,,
acc,1778672599.0,18.0,-1.9708963033587872,0.8114207420895361,-9.835689850374518,,,,,,,,,,
acc,1778672599.0,18.0,-1.9710897839736001,0.8163290809799215,-9.836756999946159,,,,,,,,,,
acc,1778672599.0,18.0,-1.969542164322713,0.8215477880187646,-9.837494984706773,,,,,,,,,,
acc,1778672599.0,18.0,-1.9672986753535184,0.8267190719228356,-9.836522424673829,,,,,,,,,,
acc,1778672599.0,18.0,-1.9661049826003676,0.8321983345551555,-9.836552608291454,,,,,,,,,,
acc,1778672599.0,18.0,-1.9652770989367518,0.837272835427157,-9.836192052339646,,,,,,,,,,
acc,1778672599.0,18.0,-1.9651666711218243,0.8409168524494284,-9.835479801891488,,,,,,,,,,
acc,1778672599.0,18.0,-1.9643473140302519,0.8438178230209123,-9.8376492582169,,,,,,,,,,
acc,1778672599.0,18.0,-1.9614410986752093,0.8474023648083179,-9.838698602353462,,,,,,,,,,
acc,1778672599.0,18.0,-1.9606555963836523,0.8519837335648819,-9.839028478205055,,,,,,,,,,
acc,1778672599.0,18.0,-1.962326497757003,0.8572334126040158,-9.841130183743697,,,,,,,,,,
acc,1778672599.0,18.0,-1.9639822154124893,0.8631453107194442,-9.840763525098678,,,,,,,,,,
acc,1778672599.0,18.0,-1.9649129545870434,0.8693229631265641,-9.84075516924623,,,,,,,,,,
acc,1778672599.0,18.0,-1.9640959030667788,0.8744150781324983,-9.840356424046977,,,,,,,,,,
acc,1778672599.0,18.0,-1.9639962089454275,0.8791059494564162,-9.838967396471443,,,,,,,,,,
acc,1778672599.0,18.0,-1.9628325262010122,0.8823698230650197,-9.83893986792463,,,,,,,,,,
acc,1778672600.0,19.0,-1.9613599414614789,0.8852490755696173,-9.839658016630791,,,,,,,,,,
acc,1778672600.0,19.0,-1.9602202148518888,0.8870727637118837,-9.84033413596619,,,,,,,,,,
acc,1778672600.0,19.0,-1.9598007687408223,0.8895543090191721,-9.840294187667915,,,,,,,,,,
acc,1778672600.0,19.0,-1.9586752105558827,0.8944625788974055,-9.839899631478353,,,,,,,,,,
acc,1778672600.0,19.0,-1.9568854421162327,0.8996812084530637,-9.838195287406384,,,,,,,,,,
acc,1778672600.0,19.0,-1.9551119375550978,0.9062367866682347,-9.837500336762906,,,,,,,,,,
acc,1778672600.0,19.0,-1.9547389110730227,0.9144721263164274,-9.838551034131461,,,,,,,,,,
acc,1778672600.0,19.0,-1.9553986835953563,0.9216032300984821,-9.838562783491803,,,,,,,,,,
acc,1778672600.0,19.0,-1.9553780223169313,0.9265752287421526,-9.837828989913767,,,,,,,,,,
acc,1778672600.0,19.0,-1.9550025778881652,0.9311470843182003,-9.83578849116592,,,,,,,,,,
acc,1778672600.0,19.0,-1.95463054517582,0.9363873184272927,-9.835789849773441,,,,,,,,,,
acc,1778672600.0,19.0,-1.9535519695498145,0.9443486759209646,-9.83373238661963,,,,,,,,,,
acc,1778672600.0,19.0,-1.9524831950923605,0.9529476201513161,-9.832084085187072,,,,,,,,,,
acc,1778672600.0,19.0,-1.9511046562032417,0.9618233954647475,-9.831764135346193,,,,,,,,,,
acc,1778672600.0,19.0,-1.9504130826373618,0.9716479155173325,-9.829743254430134,,,,,,,,,,
acc,1778672600.0,19.0,-1.9500827553085425,0.9806732260659583,-9.832284306879346,,,,,,,,,,
acc,1778672600.0,19.0,-1.9494004679004444,0.9875577129539022,-9.831004126171234,,,,,,,,,,
acc,1778672600.0,19.0,-1.950463713392061,0.9922853357873707,-9.830693990070117,,,,,,,,,,
acc,1778672600.0,19.0,-1.9518722679185223,0.9976444363894599,-9.833616868297934,,,,,,,,,,
acc,1778672600.0,19.0,-1.9518836516685816,1.0033098089872403,-9.830514256847948,,,,,,,,,,
acc,1778672600.0,19.0,-1.9498006282294513,1.0127573361412416,-9.832018902921492,,,,,,,,,,
acc,1778672600.0,19.0,-1.9477365335165866,1.0217640413963063,-9.828966306778476,,,,,,,,,,
acc,1778672600.0,19.0,-1.9470755665583206,1.0303339396510507,-9.829029659520762,,,,,,,,,,
acc,1778672600.0,19.0,-1.946775567705227,1.037796552810331,-9.82877296003806,,,,,,,,,,
acc,1778672600.0,19.0,-1.9436740676441726,1.0448363903526103,-9.828163631414382,,,,,,,,,,
acc,1778672600.0,19.0,-1.9409557131533688,1.0525221886009604,-9.827240363316601,,,,,,,,,,
acc,1778672600.0,19.0,-1.938617031621785,1.0580438412013917,-9.826609458163434,,,,,,,,,,
acc,1778672600.0,19.0,-1.9376839730420212,1.063160355967907,-9.826694227914958,,,,,,,,,,
acc,1778672600.0,19.0,-1.9360849549660795,1.0675204435554364,-9.82823358710072,,,,,,,,,,
acc,1778672600.0,19.0,-1.9337905346992723,1.071840910416822,-9.829013521772243,,,,,,,,,,
acc,1778672600.0,19.0,-1.9329013351694464,1.0764770783931898,-9.829076445464546,,,,,,,,,,
acc,1778672600.0,19.0,-1.9320202159201285,1.0800417167341663,-9.83229799555847,,,,,,,,,,
acc,1778672600.0,19.0,-1.9294077616216512,1.0839289245089065,-9.832331072782669,,,,,,,,,,
acc,1778672600.0,19.0,-1.926464085260258,1.0877808086831604,-9.833464238280307,,,,,,,,,,
acc,1778672600.0,19.0,-1.9242570911842465,1.0908877666478407,-9.834232144744828,,,,,,,,,,
acc,1778672600.0,19.0,-1.9234545233810898,1.0939664912513711,-9.83570300582192,,,,,,,,,,
acc,1778672600.0,19.0,-1.9219848103011639,1.0970172390543613,-9.836060103045448,,,,,,,,,,
acc,1778672600.0,19.0,-1.919463549139604,1.0990108550787894,-9.835704022592585,,,,,,,,,,
acc,1778672600.0,19.0,-1.9162907607094646,1.1002764221529115,-9.836806537621175,,,,,,,,,,
acc,1778672600.0,19.0,-1.9138212421705907,1.1018854597270737,-9.836479168577295,,,,,,,,,,
acc,1778672600.0,19.0,-1.9127940298540687,1.1038348375493785,-9.838604039860586,,,,,,,,,,
acc,1778672600.0,19.0,-1.9117761519591814,1.1067959103055542,-9.839325240230398,,,,,,,,,,
acc,1778672600.0,19.0,-1.9097026291867476,1.1093751044971571,-9.841424248861882,,,,,,,,,,
acc,1778672600.0,19.0,-1.9076479488049065,1.1122858320744615,-9.842474783396659,,,,,,,,,,
acc,1778672600.0,19.0,-1.9056119395901627,1.1158800330553595,-9.842415382742034,,,,,,,,,,
acc,1778672600.0,19.0,-1.904304364552204,1.1190866112358893,-9.845231746940513,,,,,,,,,,
acc,1778672600.0,19.0,-1.9022987389543728,1.1243583544609839,-9.84479232249532,,,,,,,,,,
acc,1778672600.0,19.0,-1.9003113387557948,1.1285172890637576,-9.8468771544318,,,,,,,,,,
acc,1778672600.0,19.0,-1.897632065664725,1.131609030741564,-9.847168204979123,,,,,,,,,,
acc,1778672600.0,19.0,-1.8949771395013841,1.1343177155386153,-9.84706615455413,,,,,,,,,,
acc,1778672600.0,19.0,-1.892026862503356,1.1370017861397455,-9.850443697032023,,,,,,,,,,
acc,1778672600.0,19.0,-1.888748433290326,1.1400164280104668,-9.847543139790897,,,,,,,,,,
acc,1778672600.0,19.0,-1.8861742339301222,1.143678113721144,-9.849248003780163,,,,,,,,,,
acc,1778672600.0,19.0,-1.8829489883681496,1.1476614869763135,-9.84983697752069,,,,,,,,,,
acc,1778672600.0,19.0,-1.878688147511735,1.151963633643396,-9.848397293335188,,,,,,,,,,
acc,1778672600.0,19.0,-1.8751759672660857,1.156226686105237,-9.84828407401507,,,,,,,,,,
acc,1778672600.0,19.0,-1.8713407318125643,1.160096028738166,-9.84746194177814,,,,,,,,,,
acc,1778672600.0,19.0,-1.8682502803456837,1.1653500754539972,-9.847357222127057,,,,,,,,,,
acc,1778672600.0,19.0,-1.8651879122409698,1.1694914834582137,-9.84760841586849,,,,,,,,,,
acc,1778672600.0,19.0,-1.8610884687561189,1.1735952579121862,-9.848212288767654,,,,,,,,,,
acc,1778672600.0,19.0,-1.8577362192380233,1.1766323316149685,-9.849875577733755,,,,,,,,,,
acc,1778672600.0,19.0,-1.8561537648377893,1.1789318834278046,-9.851878713951459,,,,,,,,,,
acc,1778672600.0,19.0,-1.855295623086274,1.180855568017384,-9.853899150840668,,,,,,,,,,
acc,1778672600.0,19.0,-1.8544452793880692,1.1838266662719943,-9.854481362408908,,,,,,,,,,
acc,1778672600.0,19.0,-1.8525377593407313,1.1878001749230669,-9.852609017918759,,,,,,,,,,
acc,1778672600.0,19.0,-1.8496181731019299,1.1924475084132145,-9.851783087774066,,,,,,,,,,
acc,1778672600.0,19.0,-1.8460151848852075,1.2005312764460976,-9.849260824578936,,,,,,,,,,
acc,1778672600.0,19.0,-1.8441842702750701,1.2085415861565423,-9.847435919841226,,,,,,,,,,
acc,1778672600.0,19.0,-1.843079926102578,1.2164791050706856,-9.846976465781228,,,,,,,,,,
acc,1778672600.0,19.0,-1.8412756845969525,1.2243444946487563,-9.845917746353207,,,,,,,,,,
acc,1778672600.0,19.0,-1.8384584383970253,1.2290147066300214,-9.845507582507247,,,,,,,,,,
acc,1778672600.0,19.0,-1.8346018893693008,1.2325775852991923,-9.84336181312963,,,,,,,,,,
acc,1778672600.0,19.0,-1.8307803853376445,1.2333393456763753,-9.840880571782268,,,,,,,,,,
acc,1778672600.0,19.0,-1.8280585113767283,1.2340941838313393,-9.839841743139116,,,,,,,,,,
acc,1778672600.0,19.0,-1.8250064096758567,1.2372559337095033,-9.839096327539721,,,,,,,,,,
acc,1778672600.0,19.0,-1.8219820428464195,1.2418088176460658,-9.839067627381407,,,,,,,,,,
acc,1778672600.0,19.0,-1.8193401206434523,1.2497990034654807,-9.837335349644865,,,,,,,,,,
acc,1778672600.0,19.0,-1.8188165095670739,1.259100952313631,-9.837677613521265,,,,,,,,,,
acc,1778672600.0,19.0,-1.818297656617136,1.2658690985786925,-9.836987367116517,,,,,,,,,,
acc,1778672600.0,19.0,-1.8174285476836805,1.2711913708070428,-9.835309487356376,,,,,,,,,,
acc,1778672600.0,19.0,-1.8155024420218826,1.2754358787293667,-9.836060625755398,,,,,,,,,,
acc,1778672600.0,19.0,-1.8129194008537781,1.2785769217789211,-9.833290769534633,,,,,,,,,,
acc,1778672600.0,19.0,-1.8113892322181302,1.2823993543910495,-9.832320910477625,,,,,,,,,,
acc,1778672600.0,19.0,-1.8098729684368833,1.2847671867171926,-9.831395368112378,,,,,,,,,,
acc,1778672600.0,19.0,-1.8076960448604282,1.2874684640069978,-9.830762209340918,,,,,,,,,,
acc,1778672600.0,19.0,-1.806568312454938,1.2918845362355955,-9.831909631264452,,,,,,,,,,
acc,1778672600.0,19.0,-1.8065157223481432,1.2945211371854008,-9.829567960942736,,,,,,,,,,
acc,1778672600.0,19.0,-1.8053987156973605,1.2961043789005713,-9.82962584636654,,,,,,,,,,
acc,1778672600.0,19.0,-1.8021975558404073,1.2976732334790295,-9.826914463884362,,,,,,,,,,
acc,1778672600.0,19.0,-1.7990254853663252,1.2988728698755827,-9.825647585416982,,,,,,,,,,
acc,1778672600.0,19.0,-1.7969471343717869,1.3000616050101081,-9.826451019399835,,,,,,,,,,
acc,1778672600.0,19.0,-1.7962720405849695,1.300529596204082,-9.824513914025829,,,,,,,,,,
acc,1778672600.0,19.0,-1.7948931488165019,1.300993334697294,-9.82497268805363,,,,,,,,,,
acc,1778672600.0,19.0,-1.7911130162115576,1.301133391713011,-9.824362389616757,,,,,,,,,,
acc,1778672600.0,19.0,-1.7876867016162392,1.3023015851715376,-9.823118702203299,,,,,,,,,,
acc,1778672600.0,19.0,-1.7867407968783693,1.303814124876556,-9.822525251192136,,,,,,,,,,
acc,1778672600.0,19.0,-1.7854485168386485,1.3053129199239761,-9.823357058254532,,,,,,,,,,
acc,1778672600.0,19.0,-1.783138579854662,1.3067980952134213,-9.822512971657169,,,,,,,,,,
acc,1778672600.0,19.0,-1.781524071877335,1.3089442127992361,-9.822670461102113,,,,,,,,,,
acc,1778672600.0,19.0,-1.7796047586494328,1.313875055470361,-9.82460134650047,,,,,,,,,,
acc,1778672600.0,19.0,-1.7780223629941156,1.3205004326995402,-9.823036020235417,,,,,,,,,,
acc,1778672600.0,19.0,-1.7764543467869922,1.325326262402644,-9.824608621964728,,,,,,,,,,
acc,1778672600.0,19.0,-1.7738711792903363,1.3273040119744777,-9.823753162237063,,,,,,,,,,
acc,1778672600.0,19.0,-1.7730508181122453,1.331358093048788,-9.823899381898858,,,,,,,,,,
acc,1778672600.0,19.0,-1.7715279790208895,1.3329615540349182,-9.825464138139836,,,,,,,,,,
acc,1778672600.0,19.0,-1.7679601689548021,1.3341954823686828,-9.82488487727908,,,,,,,,,,
acc,1778672600.0,19.0,-1.765099218359671,1.3354181978250688,-9.82605021295818,,,,,,,,,,
acc,1778672600.0,19.0,-1.7629741982660898,1.3359198696491057,-9.828269853499204,,,,,,,,,,
acc,1778672600.0,19.0,-1.7601585558761765,1.3364169827119234,-9.830149856440096,,,,,,,,,,
acc,1778672600.0,19.0,-1.7566940613310225,1.3376195110870701,-9.831302842886931,,,,,,,,,,
acc,1778672600.0,19.0,-1.754290458280489,1.339485550207281,-9.833510255500927,,,,,,,,,,
acc,1778672600.0,19.0,-1.7540029915962976,1.344138859512257,-9.834987676404431,,,,,,,,,,
acc,1778672600.0,19.0,-1.7530082045148623,1.3501342544853665,-9.836061206552504,,,,,,,,,,
acc,1778672600.0,19.0,-1.7520224572011152,1.3529514648311807,-9.835740610451294,,,,,,,,,,
acc,1778672600.0,19.0,-1.7503712292236815,1.3546781803714234,-9.836132860297438,,,,,,,,,,
acc,1778672600.0,19.0,-1.7473151408909386,1.3550048340773586,-9.835776118708454,,,,,,,,,,
acc,1778672600.0,19.0,-1.744641794521634,1.3546540811506032,-9.836168045885925,,,,,,,,,,
acc,1778672600.0,19.0,-1.7433771121509007,1.3563653247800314,-9.836556411566985,,,,,,,,,,
acc,1778672600.0,19.0,-1.7421239221235956,1.359835845172142,-9.837651180760858,,,,,,,,,,
acc,1778672600.0,19.0,-1.740207681722465,1.3677829030348472,-9.838026068990617,,,,,,,,,,
acc,1778672600.0,19.0,-1.7386638162415047,1.374947812239932,-9.838007094419845,,,,,,,,,,
acc,1778672600.0,19.0,-1.736779018300596,1.3799888127989883,-9.839443651923686,,,,,,,,,,
acc,1778672600.0,19.0,-1.7349113477789162,1.3849840050896707,-9.83980225172058,,,,,,,,,,
acc,1778672600.0,19.0,-1.7334156108158674,1.389223863646522,-9.83980263109295,,,,,,,,,,
acc,1778672600.0,19.0,-1.7326079041049829,1.3923957939607454,-9.842252272368718,,,,,,,,,,
acc,1778672600.0,19.0,-1.731807537136528,1.393089635155976,-9.843969720771863,,,,,,,,,,
acc,1778672600.0,19.0,-1.7296300813730638,1.394132133098811,-9.843186793687105,,,,,,,,,,
acc,1778672600.0,19.0,-1.7278273742290813,1.3986438322165062,-9.845250711743619,,,,,,,,,,
acc,1778672601.0,20.0,-1.7263960103120264,1.4058832656674476,-9.84520158020876,,,,,,,,,,
acc,1778672601.0,20.0,-1.7256520916794795,1.41341188425226,-9.845152895138943,,,,,,,,,,
acc,1778672601.0,20.0,-1.7242404948554644,1.42051711837536,-9.843720281551112,,,,,,,,,,
acc,1778672601.0,20.0,-1.7224867636287469,1.4268833570595072,-9.843649562886021,,,,,,,,,,
acc,1778672601.0,20.0,-1.7203940070219508,1.435605515839483,-9.841875648508386,,,,,,,,,,
acc,1778672601.0,20.0,-1.7183202675833487,1.4442484151585189,-9.841502215773467,,,,,,,,,,
acc,1778672601.0,20.0,-1.716265372501295,1.4503990042737487,-9.841806614755543,,,,,,,,,,
acc,1778672601.0,20.0,-1.7149390740897408,1.455783769494295,-9.839339505773237,,,,,,,,,,
acc,1778672601.0,20.0,-1.713624827934926,1.460764631745326,-9.840054022824024,,,,,,,,,,
acc,1778672601.0,20.0,-1.7119675627388562,1.466055203078189,-9.839697143453073,,,,,,,,,,
acc,1778672601.0,20.0,-1.7113547573993682,1.4744214018836024,-9.837284706976211,,,,,,,,,,
acc,1778672601.0,20.0,-1.7100730824251007,1.483066537663119,-9.837272469264322,,,,,,,,,,
acc,1778672601.0,20.0,-1.7077381597893178,1.490603713842088,-9.837970266312713,,,,,,,,,,
acc,1778672601.0,20.0,-1.7082286911234783,1.4980723986609454,-9.836957884043418,,,,,,,,,,
acc,1778672601.0,20.0,-1.7093892032127949,1.504053349227438,-9.8415276794816,,,,,,,,,,
acc,1778672601.0,20.0,-1.7087998277822343,1.509305511789833,-9.840766943565477,,,,,,,,,,
acc,1778672601.0,20.0,-1.7078608463105567,1.5127706145273583,-9.841787956707925,,,,,,,,,,
acc,1778672601.0,20.0,-1.7066109209892857,1.5175886003198598,-9.842125253482353,,,,,,,,,,
acc,1778672601.0,20.0,-1.7056918304156097,1.524812069749821,-9.839655248991313,,,,,,,,,,
acc,1778672601.0,20.0,-1.7047810917447888,1.5337092312144018,-9.840721858615257,,,,,,,,,,
acc,1778672601.0,20.0,-1.7018198198806058,1.5407862102475105,-9.840713881393052,,,,,,,,,,
acc,1778672601.0,20.0,-1.6999148666464636,1.5474439180190878,-9.839002138323803,,,,,,,,,,
acc,1778672601.0,20.0,-1.7001215184589002,1.5550705263383837,-9.83730595009998,,,,,,,,,,
acc,1778672601.0,20.0,-1.6996163597575562,1.5577647852146566,-9.836583577621534,,,,,,,,,,
acc,1778672601.0,20.0,-1.6967020205265464,1.560079599212339,-9.835903272888814,,,,,,,,,,
acc,1778672601.0,20.0,-1.6934592025217126,1.5616989398960883,-9.834554711899235,,,,,,,,,,
acc,1778672601.0,20.0,-1.6916302233710443,1.561209261848119,-9.833608870693135,,,,,,,,,,
acc,1778672601.0,20.0,-1.6929415680213822,1.5624633753550115,-9.83295559753247,,,,,,,,,,
acc,1778672601.0,20.0,-1.6949509198545702,1.564061054335764,-9.835822429593462,,,,,,,,,,
acc,1778672601.0,20.0,-1.6941377853194124,1.5656442149872472,-9.836923868573702,,,,,,,,,,
acc,1778672601.0,20.0,-1.6926576015706174,1.5699817310771584,-9.84039357524013,,,,,,,,,,
acc,1778672601.0,20.0,-1.6929302011504554,1.5721855280020862,-9.842482875645088,,,,,,,,,,
acc,1778672601.0,20.0,-1.6942297327226616,1.573339898665199,-9.84142948667616,,,,,,,,,,
acc,1778672601.0,20.0,-1.6944880461300356,1.5803762157647645,-9.84318990619474,,,,,,,,,,
acc,1778672601.0,20.0,-1.6922947468746858,1.5880585255195612,-9.84244956884503,,,,,,,,,,
acc,1778672601.0,20.0,-1.6901213784321467,1.596025995929232,-9.841077015124228,,,,,,,,,,
acc,1778672601.0,20.0,-1.6893521306060695,1.600797361225222,-9.842130704960741,,,,,,,,,,
acc,1778672601.0,20.0,-1.6889448348169223,1.6055253684667832,-9.840761048800335,,,,,,,,,,
acc,1778672601.0,20.0,-1.6896061436824803,1.6105298790702074,-9.842137086368899,,,,,,,,,,
acc,1778672601.0,20.0,-1.689906472280281,1.6169087782730174,-9.843181143191572,,,,,,,,,,
acc,1778672601.0,20.0,-1.688819700833673,1.6218098462619956,-9.843470285527198,,,,,,,,,,
acc,1778672601.0,20.0,-1.6873878432533718,1.6249270448778035,-9.842691896885228,,,,,,,,,,
acc,1778672601.0,20.0,-1.6852590645219143,1.630110211547962,-9.842311046791092,,,,,,,,,,
acc,1778672601.0,20.0,-1.6845340012128642,1.633151983600161,-9.83983935397938,,,,,,,,,,
acc,1778672601.0,20.0,-1.6841704884296385,1.636876047288585,-9.840513825389408,,,,,,,,,,
acc,1778672601.0,20.0,-1.6824259171080829,1.6395368698432224,-9.84228256564571,,,,,,,,,,
acc,1778672601.0,20.0,-1.680697198946658,1.6432029131899237,-9.84222491170361,,,,,,,,,,
acc,1778672601.0,20.0,-1.6803685517143254,1.6499593463026536,-9.842522743446281,,,,,,,,,,
acc,1778672601.0,20.0,-1.67968792916929,1.6562994119136374,-9.844273228386887,,,,,,,,,,
acc,1778672601.0,20.0,-1.6793684533105335,1.662936835336851,-9.842884102822778,,,,,,,,,,
acc,1778672601.0,20.0,-1.6790518805729495,1.6705788379915265,-9.845305742318313,,,,,,,,,,
acc,1778672601.0,20.0,-1.6766438810223179,1.6753471605236394,-9.845930539903952,,,,,,,,,,
acc,1778672601.0,20.0,-1.6749677050203877,1.6856451306727376,-9.84342595626198,,,,,,,,,,
acc,1778672601.0,20.0,-1.6733067606608567,1.6948201126075608,-9.844777777447113,,,,,,,,,,
acc,1778672601.0,20.0,-1.6713059386693407,1.7028468258039848,-9.842283669116858,,,,,,,,,,
acc,1778672601.0,20.0,-1.669678269285389,1.712184970065998,-9.843645870422394,,,,,,,,,,
acc,1778672601.0,20.0,-1.6694497525851286,1.7196989155468112,-9.843220857079755,,,,,,,,,,
acc,1778672601.0,20.0,-1.6692233124476232,1.724375848027124,-9.842480238476917,,,,,,,,,,
acc,1778672601.0,20.0,-1.6679695299505541,1.7303946514918331,-9.843485682667021,,,,,,,,,,
acc,1778672601.0,20.0,-1.6670821025229117,1.7377431230870957,-9.838980010036751,,,,,,,,,,
acc,1778672601.0,20.0,-1.6654928157205775,1.7432854854187492,-9.838242425148168,,,,,,,,,,
acc,1778672601.0,20.0,-1.6621786292101595,1.7501973488142135,-9.838576446294395,,,,,,,,,,
acc,1778672601.0,20.0,-1.659249530031474,1.7573658705692115,-9.836848632040487,,,,,,,,,,
acc,1778672601.0,20.0,-1.6559920771186714,1.7624104508751917,-9.839325116687682,,,,,,,,,,
acc,1778672601.0,20.0,-1.6520542924924992,1.767054228609726,-9.839649299266668,,,,,,,,,,
acc,1778672601.0,20.0,-1.6506015654706494,1.7733951403845873,-9.841390401227693,,,,,,,,,,
acc,1778672601.0,20.0,-1.6512563340428428,1.7775841278696998,-9.844819519883686,,,,,,,,,,
acc,1778672601.0,20.0,-1.650165819954391,1.7810251168113886,-9.845129268423953,,,,,,,,,,
acc,1778672601.0,20.0,-1.6494401772925655,1.7841153695975664,-9.844690775239737,,,,,,,,,,
acc,1778672601.0,20.0,-1.6490406051474864,1.7854382081426368,-9.844966199340224,,,,,,,,,,
acc,1778672601.0,20.0,-1.646905322194398,1.78880782597427,-9.844529187987295,,,,,,,,,,
acc,1778672601.0,20.0,-1.645144413713653,1.7914723853477177,-9.843741176954884,,,,,,,,,,
acc,1778672601.0,20.0,-1.6447838777640291,1.7927283696769845,-9.842356886218033,,,,,,,,,,
acc,1778672601.0,20.0,-1.6426872762794515,1.7960317408058846,-9.84442834573719,,,,,,,,,,
acc,1778672601.0,20.0,-1.6388703942139329,1.7996600555207625,-9.8416179453302,,,,,,,,,,
acc,1778672601.0,20.0,-1.63615310017995,1.8025809700505617,-9.841601825244629,,,,,,,,,,
acc,1778672601.0,20.0,-1.632750565934936,1.8061497710167143,-9.8426507460555,,,,,,,,,,
acc,1778672601.0,20.0,-1.6307633128130006,1.8117804453456687,-9.840921402440268,,,,,,,,,,
acc,1778672601.0,20.0,-1.6298590216320485,1.8177149238227837,-9.843041409844774,,,,,,,,,,
acc,1778672601.0,20.0,-1.6275785769571902,1.8239504366507504,-9.843722287177345,,,,,,,,,,
acc,1778672601.0,20.0,-1.626348264135203,1.830129286514391,-9.845071415559957,,,,,,,,,,
acc,1778672601.0,20.0,-1.6254840931098835,1.8372813974556859,-9.841900209715558,,,,,,,,,,
acc,1778672601.0,20.0,-1.6242728131512532,1.8426291744054286,-9.844721255199184,,,,,,,,,,
acc,1778672601.0,20.0,-1.6223625985372825,1.8454790900463773,-9.842618125721138,,,,,,,,,,
acc,1778672601.0,20.0,-1.6204697423067265,1.8493680116088502,-9.841208545946499,,,,,,,,,,
acc,1778672601.0,20.0,-1.61930402844472,1.8538960231940846,-9.840450710046353,,,,,,,,,,
acc,1778672601.0,20.0,-1.6160546040372625,1.8587378589756822,-9.839415787651062,,,,,,,,,,
acc,1778672601.0,20.0,-1.6128347075971357,1.8649200581531216,-9.838070802323786,,,,,,,,,,
acc,1778672601.0,20.0,-1.6110284326243067,1.8717560205578476,-9.838441877389698,,,,,,,,,,
acc,1778672601.0,20.0,-1.6095935423825474,1.8781748927687807,-9.839519513081237,,,,,,,,,,
acc,1778672601.0,20.0,-1.607142291135931,1.8835060357533067,-9.838812529102716,,,,,,,,,,
acc,1778672601.0,20.0,-1.6026190111997067,1.8884337630455044,-9.83917686399517,,,,,,,,,,
acc,1778672601.0,20.0,-1.5991662349815952,1.8947010823123918,-9.838437490269014,,,,,,,,,,
acc,1778672601.0,20.0,-1.5978391381639518,1.9012664204470155,-9.83742086227948,,,,,,,,,,
acc,1778672601.0,20.0,-1.5965241008579398,1.909156460273722,-9.837442881665702,,,,,,,,,,
acc,1778672601.0,20.0,-1.5931267099300563,1.9187141439942146,-9.836719264875905,,,,,,,,,,
acc,1778672601.0,20.0,-1.5894407241473636,1.927155566588836,-9.833623956177483,,,,,,,,,,
acc,1778672601.0,20.0,-1.5864626717009545,1.935165319039054,-9.835419811257921,,,,,,,,,,
acc,1778672601.0,20.0,-1.583866643001662,1.941362953079772,-9.832336310873766,,,,,,,,,,
acc,1778672601.0,20.0,-1.5812942047728296,1.9461198974549372,-9.83378890519007,,,,,,,,,,
acc,1778672601.0,20.0,-1.57803521000906,1.9483843404132146,-9.831075186848434,,,,,,,,,,
acc,1778672601.0,20.0,-1.574805830179712,1.9509831769276746,-9.83111937590132,,,,,,,,,,
acc,1778672601.0,20.0,-1.5723157288052776,1.9514640939102157,-9.828784886801536,,,,,,,,,,
acc,1778672601.0,20.0,-1.5705581879605555,1.9522956115951775,-9.827855973349617,,,,,,,,,,
acc,1778672601.0,20.0,-1.569491056407071,1.9548589058494006,-9.82831987197309,,,,,,,,,,
acc,1778672601.0,20.0,-1.5674042219754771,1.956014536184766,-9.828424593311725,,,,,,,,,,
acc,1778672601.0,20.0,-1.5663657509453806,1.958544036058841,-9.82923829566851,,,,,,,,,,
acc,1778672601.0,20.0,-1.565336716644602,1.962079950068559,-9.831464469070589,,,,,,,,,,
acc,1778672601.0,20.0,-1.5639620624590465,1.9676780362865522,-9.834025374702367,,,,,,,,,,
acc,1778672601.0,20.0,-1.5629548708066778,1.9721958518744471,-9.832338916667139,,,,,,,,,,
acc,1778672601.0,20.0,-1.5609274315942325,1.9749332807650377,-9.834146449077734,,,,,,,,,,
acc,1778672601.0,20.0,-1.5571790833166137,1.9780007960362425,-9.832849346957131,,,,,,,,,,
acc,1778672601.0,20.0,-1.5538197585702274,1.9824248072840869,-9.830463633925786,,,,,,,,,,
acc,1778672601.0,20.0,-1.5508104278846617,1.9885479496167557,-9.83019390374309,,,,,,,,,,
acc,1778672601.0,20.0,-1.5488933468979653,1.995644850160763,-9.829536159414582,,,,,,,,,,
acc,1778672601.0,20.0,-1.5476681158783536,2.0020028219166566,-9.828884392099399,,,,,,,,,,
acc,1778672601.0,20.0,-1.5443952186034335,2.0086224944085043,-9.831823714106465,,,,,,,,,,
acc,1778672601.0,20.0,-1.54182650087208,2.0137976421142105,-9.82980229200359,,,,,,,,,,
acc,1778672601.0,20.0,-1.5403460198417098,2.019990656948894,-9.830603475022302,,,,,,,,,,
acc,1778672601.0,20.0,-1.5378140977373422,2.0285411750510884,-9.832071815855675,,,,,,,,,,
acc,1778672601.0,20.0,-1.5339208126477524,2.036339555142297,-9.829728671804208,,,,,,,,,,
acc,1778672601.0,20.0,-1.53144727728623,2.0447415085544285,-9.830849991233734,,,,,,,,,,
acc,1778672601.0,20.0,-1.5289962192812796,2.0520377031223416,-9.831286682804071,,,,,,,,,,
acc,1778672601.0,20.0,-1.5262124635169878,2.0554339599360554,-9.831328949964048,,,,,,,,,,
acc,1778672601.0,20.0,-1.522424604075838,2.0584443927223273,-9.828992556437496,,,,,,,,,,
acc,1778672602.0,21.0,-1.5193810980701972,2.0614274692911745,-9.825257528770809,,,,,,,,,,
acc,1778672602.0,21.0,-1.5173946488717882,2.0612597346384867,-9.82439617235488,,,,,,,,,,
acc,1778672602.0,21.0,-1.5150712890369786,2.064217227807446,-9.821412845298527,,,,,,,,,,
acc,1778672602.0,21.0,-1.5120946036180678,2.0671478458285817,-9.820870399104841,,,,,,,,,,
acc,1778672602.0,21.0,-1.5080800642536636,2.072856060012608,-9.82175274746426,,,,,,,,,,
acc,1778672602.0,21.0,-1.5061963091061865,2.0806067064127616,-9.818793441574165,,,,,,,,,,
acc,1778672602.0,21.0,-1.5053590719500085,2.087222027212685,-9.820759557941425,,,,,,,,,,
acc,1778672602.0,21.0,-1.502115681011803,2.094132195455112,-9.820187544812882,,,,,,,,,,
acc,1778672602.0,21.0,-1.498901763213823,2.1002696374120133,-9.819336756592492,,,,,,,,,,
acc,1778672602.0,21.0,-1.4960720125034284,2.1067062784494213,-9.819487614377756,,,,,,,,,,
acc,1778672602.0,21.0,-1.4932679761275276,2.1099607252499033,-9.818643186521665,,,,,,,,,,
acc,1778672602.0,21.0,-1.491873791326068,2.1138600276317305,-9.816741537689184,,,,,,,,,,
acc,1778672602.0,21.0,-1.491166704861637,2.117723896515703,-9.817306434719821,,,,,,,,,,
acc,1778672602.0,21.0,-1.4897916146016243,2.1219076247518536,-9.817156265818555,,,,,,,,,,
acc,1778672602.0,21.0,-1.4884290199762154,2.126763267507997,-9.817326938023776,,,,,,,,,,
acc,1778672602.0,21.0,-1.4860139039401683,2.1319297481433845,-9.817531553667111,,,,,,,,,,
acc,1778672602.0,21.0,-1.48433066703094,2.139818022076617,-9.81773430993991,,,,,,,,,,
acc,1778672602.0,21.0,-1.4833726585620794,2.142771577902019,-9.81722529110381,,,,,,,,,,
acc,1778672602.0,21.0,-1.4817134230134268,2.142894058179929,-9.818495724835186,,,,,,,,,,
acc,1778672602.0,21.0,-1.480069265166751,2.143015425462683,-9.816630910367598,,,,,,,,,,
acc,1778672602.0,21.0,-1.4770556861866204,2.142106289815717,-9.816096414828316,,,,,,,,,,
acc,1778672602.0,21.0,-1.4737145211528715,2.1436546809274257,-9.814217908861318,,,,,,,,,,
acc,1778672602.0,21.0,-1.4704037177459979,2.148667666962081,-9.815125205868386,,,,,,,,,,
acc,1778672602.0,21.0,-1.4667680292048209,2.1574687446163763,-9.814994858094126,,,,,,,,,,
acc,1778672602.0,21.0,-1.4635203495270817,2.1682486457626418,-9.81557562744268,,,,,,,,,,
acc,1778672602.0,21.0,-1.4613315820103259,2.1761618466437778,-9.817925955390296,,,,,,,,,,
acc,1778672602.0,21.0,-1.4584882749379446,2.184713080900303,-9.818125127680284,,,,,,,,,,
acc,1778672602.0,21.0,-1.4556708053885623,2.1942160089616936,-9.81796751920337,,,,,,,,,,
acc,1778672602.0,21.0,-1.4532339003467738,2.2015382790630516,-9.818840742984765,,,,,,,,,,
acc,1778672602.0,21.0,-1.4497542363013143,2.2077646106390914,-9.819386564247607,,,,,,,,,,
acc,1778672602.0,21.0,-1.4459512306685987,2.21286945918708,-9.819572463783738,,,,,,,,,,
acc,1778672602.0,21.0,-1.4442770870156154,2.2172534809985724,-9.819046741390618,,,,,,,,,,
acc,1778672602.0,21.0,-1.4419437182619907,2.2222721028746317,-9.81955519635761,,,,,,,,,,
acc,1778672602.0,21.0,-1.4378922204687812,2.228984461612434,-9.820413992697985,,,,,,,,,,
acc,1778672602.0,21.0,-1.435936339290622,2.2359907859955523,-9.818496252306629,,,,,,,,,,
acc,1778672602.0,21.0,-1.4336787640603723,2.2439983464393336,-9.82149447840811,,,,,,,,,,
acc,1778672602.0,21.0,-1.4317611711409324,2.252252608492188,-9.819566919494351,,,,,,,,,,
acc,1778672602.0,21.0,-1.429186574465046,2.2601123955151308,-9.819751180117498,,,,,,,,,,
acc,1778672602.0,21.0,-1.4266353735037631,2.2668358560755264,-9.82135363160797,,,,,,,,,,
acc,1778672602.0,21.0,-1.426201650113378,2.270019554258357,-9.818362458180395,,,,,,,,,,
acc,1778672602.0,21.0,-1.4257718680271798,2.2728193508764916,-9.817812227827822,,,,,,,,,,
acc,1778672602.0,21.0,-1.4221867934783978,2.276658599765265,-9.818331900989518,,,,,,,,,,
acc,1778672602.0,21.0,-1.4168949643131823,2.282202302640374,-9.814693748169816,,,,,,,,,,
acc,1778672602.0,21.0,-1.413745517184725,2.2880505908975657,-9.813573415422889,,,,,,,,,,
acc,1778672602.0,21.0,-1.4106246895161043,2.29416521145472,-9.812463263293939,,,,,,,,,,
acc,1778672602.0,21.0,-1.4075322212383456,2.3040578947515056,-9.811718170131075,,,,,,,,,,
acc,1778672602.0,21.0,-1.40482282550654,2.313186252685286,-9.813038647828675,,,,,,,,,,
acc,1778672602.0,21.0,-1.4028479830613376,2.320137356429939,-9.81154289907296,,,,,,,,,,
acc,1778672602.0,21.0,-1.4019204863295454,2.3280546945855956,-9.815243246079842,,,,,,,,,,
acc,1778672602.0,21.0,-1.4010014178882997,2.335545125025338,-9.813017522114688,,,,,,,,,,
acc,1778672602.0,21.0,-1.3990613011004704,2.341583117983154,-9.813580765427476,,,,,,,,,,
acc,1778672602.0,21.0,-1.3967838526474783,2.347211281093722,-9.814884317465031,,,,,,,,,,
acc,1778672602.0,21.0,-1.394527099682251,2.3517588911757277,-9.811951931586453,,,,,,,,,,
acc,1778672602.0,21.0,-1.3929652833293455,2.356620147359336,-9.811814925432731,,,,,,,,,,
acc,1778672602.0,21.0,-1.3914176594167469,2.361792190412082,-9.810330296811063,,,,,,,,,,
acc,1778672602.0,21.0,-1.3898840989757948,2.366562272623654,-9.811663386304541,,,,,,,,,,
acc,1778672602.0,21.0,-1.3890744068441427,2.3716439702148016,-9.811209534787862,,,,,,,,,,
acc,1778672602.0,21.0,-1.386887710674777,2.3763245279464367,-9.8124991401648,,,,,,,,,,
acc,1778672602.0,21.0,-1.3857502853626884,2.3802526201709737,-9.810333855715273,,,,,,,,,,
acc,1778672602.0,21.0,-1.3849781577646667,2.3855293881892035,-9.809572609325366,,,,,,,,,,
acc,1778672602.0,21.0,-1.3835031139621388,2.3866050927634914,-9.80881828048625,,,,,,,,,,
acc,1778672602.0,21.0,-1.3831063775808583,2.3907947258531985,-9.808390282837987,,,,,,,,,,
acc,1778672602.0,21.0,-1.383068208171308,2.3977150289874145,-9.80864061273769,,,,,,,,,,
acc,1778672602.0,21.0,-1.3837048238868235,2.4045724463739355,-9.809634094849365,,,,,,,,,,
acc,1778672602.0,21.0,-1.384690625448377,2.4093087402811455,-9.810618549052261,,,,,,,,,,
acc,1778672602.0,21.0,-1.386022430668953,2.4140019948333062,-9.81159405738423,,,,,,,,,,
acc,1778672602.0,21.0,-1.384892868275516,2.415138432323399,-9.811105332421967,,,,,,,,,,
acc,1778672602.0,21.0,-1.3830991320967547,2.4138507809800394,-9.809627151969872,,,,,,,,,,
acc,1778672602.0,21.0,-1.38164116325934,2.41850276138274,-9.810221204042998,,,,,,,,,,
acc,1778672602.0,21.0,-1.3791670431376237,2.426591143050383,-9.807011716017916,,,,,,,,,,
acc,1778672602.0,21.0,-1.3777448057341237,2.4307723882547267,-9.806600134869804,,,,,,,,,,
acc,1778672602.0,21.0,-1.3766904632584938,2.437009941450927,-9.807931626498457,,,,,,,,,,
acc,1778672602.0,21.0,-1.3763556343724188,2.4428358422814607,-9.809960951313569,,,,,,,,,,
acc,1778672602.0,21.0,-1.3742845154403822,2.447898869714509,-9.809522570058169,,,,,,,,,,
acc,1778672602.0,21.0,-1.370492875282036,2.4501471469027853,-9.808413734159283,,,,,,,,,,
acc,1778672602.0,21.0,-1.3660257576457564,2.4541143354558868,-9.80976423972132,,,,,,,,,,
acc,1778672602.0,21.0,-1.3636935368654948,2.460139777163051,-9.806203942420554,,,,,,,,,,
acc,1778672602.0,21.0,-1.3610275384359751,2.4636611904480676,-9.806864596030186,,,,,,,,,,
acc,1778672602.0,21.0,-1.3573563662534907,2.4647013388492276,-9.807838713603104,,,,,,,,,,
acc,1778672602.0,21.0,-1.3543929927925482,2.4653770644179245,-9.807419617414066,,,,,,,,,,
acc,1778672602.0,21.0,-1.3535508514571475,2.469205856613009,-9.809808556699688,,,,,,,,,,
acc,1778672602.0,21.0,-1.3520419245017417,2.476833492270942,-9.810045998549455,,,,,,,,,,
acc,1778672602.0,21.0,-1.3494818058784872,2.4850662437403055,-9.811701148000886,,,,,,,,,,
acc,1778672602.0,21.0,-1.3486842931749479,2.494289086558125,-9.814086683875445,,,,,,,,,,
acc,1778672602.0,21.0,-1.3482489893527219,2.5023632166381615,-9.814320744154314,,,,,,,,,,
acc,1778672602.0,21.0,-1.348527573830494,2.511073917707517,-9.81558207754302,,,,,,,,,,
acc,1778672602.0,21.0,-1.3477387323650023,2.518640559941706,-9.817932346876319,,,,,,,,,,
acc,1778672602.0,21.0,-1.345217717441389,2.5251090430079963,-9.816072651903111,,,,,,,,,,
acc,1778672602.0,21.0,-1.3437845148224619,2.530134375169325,-9.816608132830613,,,,,,,,,,
acc,1778672602.0,21.0,-1.3433937359609225,2.5385927158963484,-9.816109347721373,,,,,,,,,,
acc,1778672602.0,21.0,-1.3433614790213841,2.545909291021418,-9.815970056914644,,,,,,,,,,
acc,1778672602.0,21.0,-1.3415901825231096,2.5500356758302205,-9.816541964496851,,,,,,,,,,
acc,1778672602.0,21.0,-1.3387700785452086,2.5555089345204243,-9.81469490411985,,,,,,,,,,
acc,1778672602.0,21.0,-1.336685533874732,2.557098820730515,-9.814568466556924,,,,,,,,,,
acc,1778672602.0,21.0,-1.335649331796545,2.560449086467541,-9.813058816128242,,,,,,,,,,
acc,1778672602.0,21.0,-1.3339481166422327,2.561319642562273,-9.81291175156229,,,,,,,,,,
acc,1778672602.0,21.0,-1.3319073898036646,2.5604429551119288,-9.8103522524361,,,,,,,,,,
acc,1778672602.0,21.0,-1.3312695782393544,2.564082308739973,-9.808525944465144,,,,,,,,,,
acc,1778672602.0,21.0,-1.3309925243300862,2.568043552833898,-9.807426165040413,,,,,,,,,,
acc,1778672602.0,21.0,-1.3300080554136797,2.5688450969668546,-9.803496648926105,,,,,,,,,,
acc,1778672602.0,21.0,-1.327648161593493,2.57066875740564,-9.802087609629053,,,,,,,,,,
acc,1778672602.0,21.0,-1.3263746159482699,2.5738957112591856,-9.800691374466147,,,,,,,,,,
acc,1778672602.0,21.0,-1.3254321106013063,2.5749990377960894,-9.796219617854081,,,,,,,,,,
acc,1778672602.0,21.0,-1.3234687698824907,2.5778316800218386,-9.796580544262547,,,,,,,,,,
acc,1778672602.0,21.0,-1.3194289667686414,2.5799286490034143,-9.793104545571461,,,,,,,,,,
acc,1778672602.0,21.0,-1.3154258739020526,2.5812966299049065,-9.78969563720626,,,,,,,,,,
acc,1778672602.0,21.0,-1.3131984903735316,2.5858113777257254,-9.791180742332985,,,,,,,,,,
acc,1778672602.0,21.0,-1.3123757182942606,2.5874808632346604,-9.78675991578505,,,,,,,,,,
acc,1778672602.0,21.0,-1.3115604228581865,2.587750816077626,-9.786887327308254,,,,,,,,,,
acc,1778672602.0,21.0,-1.3104330687104437,2.5914969811856534,-9.786623115804836,,,,,,,,,,
acc,1778672602.0,21.0,-1.3099903972593177,2.5959190370095597,-9.784302505132304,,,,,,,,,,
acc,1778672602.0,21.0,-1.3102616810587693,2.6034246125933884,-9.786582045386945,,,,,,,,,,
acc,1778672602.0,21.0,-1.3091461287566277,2.612246354886564,-9.785362205781663,,,,,,,,,,
acc,1778672602.0,21.0,-1.3073307809977577,2.6216978654267225,-9.78340801494568,,,,,,,,,,
acc,1778672602.0,21.0,-1.305886900414616,2.6289691852464734,-9.784595285701124,,,,,,,,,,
acc,1778672602.0,21.0,-1.3033912370784242,2.6347900586732833,-9.784706873156082,,,,,,,,,,
acc,1778672602.0,21.0,-1.3019831556734278,2.640558037021614,-9.785562873594516,,,,,,,,,,
acc,1778672602.0,21.0,-1.3005878696980793,2.646273600956329,-9.788150428120895,,,,,,,,,,
acc,1778672602.0,21.0,-1.2992052628785469,2.6519372267744235,-9.78822970950708,,,,,,,,,,
acc,1778672602.0,21.0,-1.2974802491369672,2.6551001211287897,-9.79047356271467,,,,,,,,,,
acc,1778672602.0,21.0,-1.2940315781510225,2.6589442064606827,-9.793726434853962,,,,,,,,,,
acc,1778672602.0,21.0,-1.290969207486765,2.6637827601074426,-9.791376769702984,,,,,,,,,,
acc,1778672602.0,21.0,-1.2886091032806732,2.669642248645591,-9.793911492554718,,,,,,,,,,
acc,1778672602.0,21.0,-1.285596007392344,2.674383587709692,-9.793938422354998,,,,,,,,,,
acc,1778672602.0,21.0,-1.2812259301001527,2.6784074123856936,-9.792296763478532,,,,,,,,,,
acc,1778672602.0,21.0,-1.276895564302159,2.6830691011997554,-9.792373860904222,,,,,,,,,,
acc,1778672602.0,21.0,-1.2726045491345455,2.6845647250154943,-9.790391457639648,,,,,,,,,,
acc,1778672602.0,21.0,-1.2683525270127145,2.6864017287522644,-9.79048586884189,,,,,,,,,,
acc,1778672603.0,22.0,-1.2641391436014886,2.692055675607242,-9.789904983842352,,,,,,,,,,
acc,1778672603.0,22.0,-1.259964047785583,2.695208969865492,-9.788299977377141,,,,,,,,,,
acc,1778672603.0,22.0,-1.2551169499191088,2.6983336097045494,-9.788732870649255,,,,,,,,,,
acc,1778672603.0,22.0,-1.2492844982508267,2.702139797232303,-9.78603812657056,,,,,,,,,,
acc,1778672603.0,22.0,-1.2441794851482673,2.705911397409809,-9.787201497139403,,,,,,,,,,
acc,1778672603.0,22.0,-1.2391208620028262,2.7106781245847347,-9.785230592409654,,,,,,,,,,
acc,1778672603.0,22.0,-1.2348181398966669,2.7157564976268325,-9.784023033643766,,,,,,,,,,
acc,1778672603.0,22.0,-1.2309094880794653,2.721143693654325,-9.783145915544244,,,,,,,,,,
acc,1778672603.0,22.0,-1.224232118543181,2.7254170319948963,-9.781602329663517,,,,,,,,,,
acc,1778672603.0,22.0,-1.2176154271834696,2.730006508782062,-9.779007876152706,,,,,,,,,,
acc,1778672603.0,22.0,-1.212798195291112,2.7352642129956948,-9.776046533577718,,,,,,,,,,
acc,1778672603.0,22.0,-1.2076697764749071,2.7425329398223353,-9.775916337306963,,,,,,,,,,
acc,1778672603.0,22.0,-1.2019135220325978,2.7479962820455444,-9.773018582331154,,,,,,,,,,
acc,1778672603.0,22.0,-1.197238975514782,2.7534099781255694,-9.771531530562129,,,,,,,,,,
acc,1778672603.0,22.0,-1.1926069072449434,2.7594844118378328,-9.772862228013729,,,,,,,,,,
acc,1778672603.0,22.0,-1.1866325603091519,2.7651486754737844,-9.773435406240326,,,,,,,,,,
acc,1778672603.0,22.0,-1.182096873994979,2.7711164380266133,-9.773009461142593,,,,,,,,,,
acc,1778672603.0,22.0,-1.1783123367210662,2.777739903333334,-9.77290686316731,,,,,,,,,,
acc,1778672603.0,22.0,-1.174207219197953,2.7835932476645664,-9.774934995416189,,,,,,,,,,
acc,1778672603.0,22.0,-1.1697844436696516,2.787299098307445,-9.772046158029324,,,,,,,,,,
acc,1778672603.0,22.0,-1.1643724584640485,2.7913262442357754,-9.77131336980786,,,,,,,,,,
acc,1778672603.0,22.0,-1.1596840909874888,2.797766060250212,-9.770551746173963,,,,,,,,,,
acc,1778672603.0,22.0,-1.1550383273518599,2.803437424135577,-9.769832537878836,,,,,,,,,,
acc,1778672603.0,22.0,-1.1504347804101918,2.807672880648047,-9.770468741676837,,,,,,,,,,
acc,1778672603.0,22.0,-1.1458730665335723,2.8142836199397263,-9.769714793295089,,,,,,,,,,
acc,1778672603.0,22.0,-1.1427726708473145,2.8184205155772153,-9.767902792651446,,,,,,,,,,
acc,1778672603.0,22.0,-1.137961107114819,2.8228747895349255,-9.768521037950164,,,,,,,,,,
acc,1778672603.0,22.0,-1.1328383049511332,2.8272885868917506,-9.766045455938736,,,,,,,,,,
acc,1778672603.0,22.0,-1.128791454443818,2.8288580392877956,-9.766680579111945,,,,,,,,,,
acc,1778672603.0,22.0,-1.1244264164509217,2.8335369334436584,-9.76695495997281,,,,,,,,,,
acc,1778672603.0,22.0,-1.1208109677063338,2.8406225751596947,-9.766871876636406,,,,,,,,,,
acc,1778672603.0,22.0,-1.1161989729947925,2.845549525131374,-9.766541078683153,,,,,,,,,,
acc,1778672603.0,22.0,-1.1116288881143468,2.8507866740907337,-9.76582282151594,,,,,,,,,,
acc,1778672603.0,22.0,-1.1077747704987309,2.8542368996745906,-9.765785529524663,,,,,,,,,,
acc,1778672603.0,22.0,-1.1043106375541272,2.8590401344044736,-9.764364205502646,,,,,,,,,,
acc,1778672603.0,22.0,-1.100877983662662,2.865184092387076,-9.765724529977017,,,,,,,,,,
acc,1778672603.0,22.0,-1.0967665992229245,2.8709527519638205,-9.765013692900352,,,,,,,,,,
acc,1778672603.0,22.0,-1.0934024990467177,2.877343429210686,-9.765303220985775,,,,,,,,,,
acc,1778672603.0,22.0,-1.0900689689121064,2.882646633445707,-9.76388627976788,,,,,,,,,,
acc,1778672603.0,22.0,-1.084671436569804,2.885807343191256,-9.76386658539816,,,,,,,,,,
acc,1778672603.0,22.0,-1.0789679814866326,2.88822939849801,-9.764876470041484,,,,,,,,,,
acc,1778672603.0,22.0,-1.0757656198009637,2.8916943386621443,-9.76900088131381,,,,,,,,,,
acc,1778672603.0,22.0,-1.072592358416952,2.8947728306643685,-9.771419469531095,,,,,,,,,,
acc,1778672603.0,22.0,-1.069447932896149,2.8999176515280443,-9.771295816581501,,,,,,,,,,
acc,1778672603.0,22.0,-1.0653026811555049,2.9004721518380783,-9.771563752503802,,,,,,,,,,
acc,1778672603.0,22.0,-1.0604851652542493,2.903115907782525,-9.770480386194352,,,,,,,,,,
