sensor,time,t,ax,ay,az,wx,wy,wz,lat,lon,alt,v_kmh,satellites,x,y
acc,1778673004.0,3.0,-0.074219,0.128906,-9.796875,,,,,,,,,,
acc,1778673004.0,3.0,-0.074219,0.1398940465573602,-9.79809582460613,,,,,,,,,,
acc,1778673004.0,3.0,-0.074219,0.13727698757880102,-9.808039124052726,,,,,,,,,,
acc,1778673004.0,3.0,-0.074219,0.13566630118218828,-9.814158793990352,,,,,,,,,,
acc,1778673004.0,3.0,-0.074219,0.14025001897714992,-9.817674457921958,,,,,,,,,,
acc,1778673004.0,3.0,-0.074219,0.14356105124899687,-9.820213985278402,,,,,,,,,,
acc,1778673004.0,3.0,-0.07898998860438573,0.14606501399719543,-9.822611573126967,,,,,,,,,,
acc,1778673004.0,3.0,-0.08272465274243644,0.1480250815333274,-9.819808580366423,,,,,,,,,,
acc,1778673004.0,3.0,-0.0818886998596659,0.14960122255729436,-9.813715430122862,,,,,,,,,,
acc,1778673004.0,3.0,-0.08120183108929889,0.15089627407200318,-9.81570559786413,,,,,,,,,,
acc,1778673004.0,3.0,-0.0806273866392674,0.15197935600442505,-9.81737002178748,,,,,,,,,,
acc,1778673004.0,3.0,-0.08013981576039217,0.15289864282085416,-9.818782733904527,,,,,,,,,,
acc,1778673004.0,3.0,-0.07972076511279366,0.15120054361990679,-9.820273362485743,,,,,,,,,,
acc,1778673004.0,3.0,-0.07935671119771516,0.15205159113880146,-9.821309897579196,,,,,,,,,,
acc,1778673004.0,3.0,-0.07903746966619186,0.15279788091094262,-9.820034295185161,,,,,,,,,,
acc,1778673004.0,3.0,-0.078755224636179,0.15345768409548194,-9.818906520755966,,,,,,,,,,
acc,1778673004.0,3.0,-0.07850387801493677,0.15620968891005974,-9.81790220797041,,,,,,,,,,
acc,1778673004.0,3.0,-0.08033227217822195,0.15662252122468637,-9.819055789468505,,,,,,,,,,
acc,1778673004.0,3.0,-0.08002646302927517,0.1569946722767843,-9.818141614923087,,,,,,,,,,
acc,1778673004.0,3.0,-0.08161324374314956,0.15733189842248888,-9.81712685250318,,,,,,,,,,
acc,1778673004.0,3.0,-0.08127592585795379,0.1576389188170197,-9.817984997935241,,,,,,,,,,
acc,1778673004.0,3.0,-0.08096750360627139,0.15791963894942138,-9.817233098894791,,,,,,,,,,
acc,1778673004.0,3.0,-0.08068439535422425,0.15817731875548324,-9.816542912561292,,,,,,,,,,
acc,1778673004.0,3.0,-0.08042358800001859,0.15841470070378488,-9.81590709332873,,,,,,,,,,
acc,1778673004.0,3.0,-0.08018252847535833,0.158634108549069,-9.815319417101433,,,,,,,,,,
acc,1778673004.0,3.0,-0.07995903918036189,0.1588375243017896,-9.814774575133832,,,,,,,,,,
acc,1778673004.0,3.0,-0.08116528458923276,0.1577540117208534,-9.812712546278311,,,,,,,,,,
acc,1778673004.0,3.0,-0.08092207655394063,0.15797487129208307,-9.810790331052994,,,,,,,,,,
acc,1778673004.0,3.0,-0.0806948017338782,0.15698926081319903,-9.810318517202186,,,,,,,,,,
acc,1778673004.0,3.0,-0.08048192867712493,0.15606610568606932,-9.809876600862257,,,,,,,,,,
acc,1778673004.0,3.0,-0.0802821161918284,0.15519958963617855,-9.809461797770117,,,,,,,,,,
acc,1778673004.0,3.0,-0.0800941846924386,0.1543845972183643,-9.809071659151194,,,,,,,,,,
acc,1778673004.0,3.0,-0.07991709257291403,0.15467629728564877,-9.808821758853892,,,,,,,,,,
acc,1778673004.0,3.0,-0.07974991660721792,0.1549516638043443,-9.808585851555243,,,,,,,,,,
acc,1778673004.0,3.0,-0.0795918355983472,0.15420724382782086,-9.808251139723541,,,,,,,,,,
acc,1778673004.0,3.0,-0.07944211666461104,0.15448185554063457,-9.80804297750942,,,,,,,,,,
acc,1778673004.0,3.0,-0.0793001036798936,0.15474233314357932,-9.807845529286972,,,,,,,,,,
acc,1778673004.0,3.0,-0.07916520748326106,0.15498975726479697,-9.80765797591435,,,,,,,,,,
acc,1778673004.0,3.0,-0.07802356138326264,0.15431311659213803,-9.80747957977451,,,,,,,,,,
acc,1778673004.0,3.0,-0.07792706128659782,0.15456039035025673,-9.80730967488124,,,,,,,,,,
acc,1778673004.0,3.0,-0.07686564877622372,0.1539237474883618,-9.806081333807324,,,,,,,,,,
acc,1778673004.0,3.0,-0.07585233167876404,0.15417005175871237,-9.805857670081409,,,,,,,,,,
acc,1778673004.0,3.0,-0.07581346207035321,0.1535688243341178,-9.805643902802485,,,,,,,,,,
acc,1778673004.0,3.0,-0.07577627272079157,0.15381356792827786,-9.805530480103025,,,,,,,,,,
acc,1778673004.0,3.0,-0.07574065473037424,0.1540479703874295,-9.805421849845436,,,,,,,,,,
acc,1778673004.0,3.0,-0.07570650843191983,0.15427268762259239,-9.805317708057721,,,,,,,,,,
acc,1778673004.0,3.0,-0.07567374243299028,0.1544883210885924,-9.805217776004785,,,,,,,,,,
acc,1778673004.0,3.0,-0.07564227277491248,0.15554045211926273,-9.805882330033924,,,,,,,,,,
acc,1778673004.0,3.0,-0.07561202219231444,0.15572157115180038,-9.80652114048746,,,,,,,,,,
acc,1778673004.0,3.0,-0.07558291945943409,0.1558958176743726,-9.806401218654036,,,,,,,,,,
acc,1778673004.0,3.0,-0.07555489881156423,0.15606358543940058,-9.806285755701465,,,,,,,,,,
acc,1778673004.0,3.0,-0.07552789943174763,0.15622523857568812,-9.806174501025067,,,,,,,,,,
acc,1778673004.0,3.0,-0.07550186499429493,0.15638111432151272,-9.806067222527053,,,,,,,,,,
acc,1778673004.0,3.0,-0.07471179106700838,0.15584308219659201,-9.805963704939984,,,,,,,,,,
acc,1778673004.0,3.0,-0.0739488954637585,0.15532355822758964,-9.80654180633285,,,,,,,,,,
acc,1778673004.0,3.0,-0.07395402794727428,0.1548215759802092,-9.807174609329847,,,,,,,,,,
acc,1778673004.0,3.0,-0.0739589902782054,0.15499462835104777,-9.80771328298142,,,,,,,,,,
acc,1778673004.0,3.0,-0.07396379103584716,0.15516204614386694,-9.807585286957778,,,,,,,,,,
acc,1778673004.0,3.0,-0.07396843822892232,0.1553241086484769,-9.807461385215781,,,,,,,,,,
acc,1778673004.0,3.0,-0.07467465248203269,0.1554810768829692,-9.80727121047795,,,,,,,,,,
acc,1778673004.0,3.0,-0.0753590459017135,0.15563319506284493,-9.807086911819875,,,,,,,,,,
acc,1778673004.0,3.0,-0.07533909607478853,0.1557806919306709,-9.806976563763518,,,,,,,,,,
acc,1778673004.0,3.0,-0.07531974229873058,0.15592378196147108,-9.806869512630735,,,,,,,,,,
acc,1778673004.0,3.0,-0.07530095734625611,0.15606266645719452,-9.806765607819827,,,,,,,,,,
acc,1778673004.0,3.0,-0.07528271563720156,0.1561975345419884,-9.806664707839774,,,,,,,,,,
acc,1778673004.0,3.0,-0.07526499311592583,0.15574283143840328,-9.805915869300991,,,,,,,,,,
acc,1778673004.0,3.0,-0.07524776713949835,0.15587983597443353,-9.805831305515445,,,,,,,,,,
acc,1778673004.0,3.0,-0.07586703818751245,0.15601306097031334,-9.805685475663873,,,,,,,,,,
acc,1778673004.0,3.0,-0.07584050118534764,0.15614266640911542,-9.805606502929932,,,,,,,,,,
acc,1778673004.0,3.0,-0.07581467438157553,0.15626880327321757,-9.805529643709352,,,,,,,,,,
acc,1778673004.0,3.0,-0.07578952857743702,0.15639161416795103,-9.805454811108154,,,,,,,,,,
acc,1778673004.0,3.0,-0.075765036172165,0.15596297580312077,-9.805321008887782,,,,,,,,,,
acc,1778673004.0,3.0,-0.07574117105523653,0.15669098413973379,-9.805250927834756,,,,,,,,,,
acc,1778673004.0,3.0,-0.0757179085072218,0.15680363153883972,-9.805182616254056,,,,,,,,,,
acc,1778673004.0,3.0,-0.07569522510844011,0.1569134744448715,-9.805116005372676,,,,,,,,,,
acc,1778673004.0,3.0,-0.07567309865471504,0.15702062038013143,-9.805051029986993,,,,,,,,,,
acc,1778673004.0,3.0,-0.07565150807959344,0.15712517135756995,-9.804987628234363,,,,,,,,,,
acc,1778673004.0,3.0,-0.07563043338245677,0.15722722422890154,-9.804925741382018,,,,,,,,,,
acc,1778673004.0,3.0,-0.0756098555620107,0.15732687100667714,-9.80486531363175,,,,,,,,,,
acc,1778673004.0,3.0,-0.07558975655468929,0.1574241991625583,-9.804806291939038,,,,,,,,,,
acc,1778673004.0,3.0,-0.0755701191775551,0.15751929190381897,-9.804748625845367,,,,,,,,,,
acc,1778673004.0,3.0,-0.07555092707531737,0.1576122284299075,-9.805191658308713,,,,,,,,,,
acc,1778673004.0,3.0,-0.07553216467112543,0.15770308417072565,-9.805624771578145,,,,,,,,,,
acc,1778673004.0,3.0,-0.07551381712082766,0.15779193100812713,-9.805557094351812,,,,,,,,,,
acc,1778673004.0,3.0,-0.07549587027041425,0.15787883748199813,-9.80549089515695,,,,,,,,,,
acc,1778673004.0,3.0,-0.07547831061638835,0.1579638689821574,-9.805426124184228,,,,,,,,,,
acc,1778673004.0,3.0,-0.07546112526883322,0.1580470879272012,-9.805362733887582,,,,,,,,,,
acc,1778673004.0,3.0,-0.07544430191696384,0.15812855393131778,-9.805776845469735,,,,,,,,,,
acc,1778673004.0,3.0,-0.07542782879697006,0.15820832396000445,-9.805709680666714,,,,,,,,,,
acc,1778673004.0,3.0,-0.07541169466197557,0.15828645247553952,-9.805643897985643,,,,,,,,,,
acc,1778673004.0,3.0,-0.07487821545096104,0.15836299157298644,-9.805527690208876,,,,,,,,,,
acc,1778673004.0,3.0,-0.07486954010812541,0.1579753345476096,-9.805413819919726,,,,,,,,,,
acc,1778673004.0,3.0,-0.07486103732803577,0.15759538847522575,-9.80530221464421,,,,,,,,,,
acc,1778673004.0,3.0,-0.07485270182158317,0.15722291701240929,-9.80473637812501,,,,,,,,,,
acc,1778673004.0,3.0,-0.07484452851995897,0.15731112551392637,-9.804685362809364,,,,,,,,,,
acc,1778673004.0,3.0,-0.07483651256329521,0.1569471225182461,-9.804585275398782,,,,,,,,,,
acc,1778673004.0,3.0,-0.07482864928999917,0.1570377218508464,-9.804536832567118,,,,,,,,,,
acc,1778673004.0,3.0,-0.07482093422673326,0.15668171714876844,-9.804439872685498,,,,,,,,,,
acc,1778673004.0,3.0,-0.07481336307899497,0.1563323533001442,-9.804344721477642,,,,,,,,,,
acc,1778673004.0,3.0,-0.07480593172225557,0.1564289975301212,-9.804300164057176,,,,,,,,,,
acc,1778673004.0,3.0,-0.07431308527803704,0.1565238753259354,-9.804207869681262,,,,,,,,,,
acc,1778673004.0,3.0,-0.07431192251283227,0.15661703622488862,-9.804600010643664,,,,,,,,,,
acc,1778673004.0,3.0,-0.07431078058213121,0.15670852786070333,-9.804553078577701,,,,,,,,,,
acc,1778673004.0,3.0,-0.07430965891403105,0.1572757924706249,-9.803981846890228,,,,,,,,,,
acc,1778673004.0,3.0,-0.07430855695818582,0.15735827857950754,-9.803942940711194,,,,,,,,,,
acc,1778673004.0,3.0,-0.07430747418479726,0.15743932879945127,-9.803904711797129,,,,,,,,,,
acc,1778673004.0,3.0,-0.07430641008366157,0.1575189813213929,-9.804289984161432,,,,,,,,,,
acc,1778673004.0,3.0,-0.07430536416326862,0.15759727293696787,-9.804247996807808,,,,,,,,,,
acc,1778673004.0,3.0,-0.07430433594995024,0.15767423910226544,-9.804206720285721,,,,,,,,,,
acc,1778673004.0,3.0,-0.07430332498707447,0.15774991399814092,-9.804166136264174,,,,,,,,,,
acc,1778673004.0,3.0,-0.07430233083428296,0.1578243305873004,-9.804126227065447,,,,,,,,,,
acc,1778673004.0,3.0,-0.07430135306676881,0.1578975206683571,-9.804086975636128,,,,,,,,,,
acc,1778673004.0,3.0,-0.07430039127459243,0.1579695149270452,-9.804458960156502,,,,,,,,,,
acc,1778673004.0,3.0,-0.07429944506203293,0.1580403429847633,-9.80441620210767,,,,,,,,,,
acc,1778673004.0,3.0,-0.07429851404697325,0.15811003344460903,-9.804374130813029,,,,,,,,,,
acc,1778673004.0,3.0,-0.07429759786031663,0.1581786139350541,-9.8043327295936,,,,,,,,,,
acc,1778673004.0,3.0,-0.0742966961454328,0.1582461111513997,-9.804291982333751,,,,,,,,,,
acc,1778673004.0,3.0,-0.07429580855763208,0.1583125508951423,-9.804251873457428,,,,,,,,,,
acc,1778673004.0,3.0,-0.07429493476366579,0.1583779581113721,-9.804612343007198,,,,,,,,,,
acc,1778673004.0,3.0,-0.07429407444125137,0.15844235692431696,-9.804568934822234,,,,,,,,,,
acc,1778673004.0,3.0,-0.07429322727862091,0.15850577067113858,-9.804922912811659,,,,,,,,,,
acc,1778673004.0,3.0,-0.07429239297409167,0.1585682219340798,-9.80487635827426,,,,,,,,,,
acc,1778673004.0,3.0,-0.07429157123565742,0.1586297325710564,-9.804830504930154,,,,,,,,,,
acc,1778673004.0,3.0,-0.07429076178059937,0.15869032374477973,-9.804785337003514,,,,,,,,,,
acc,1778673004.0,3.0,-0.07428996433511563,0.15875001595049226,-9.804740839216082,,,,,,,,,,
acc,1778673005.0,4.0,-0.07428917863396821,0.15880882904239177,-9.80469699676747,,,,,,,,,,
acc,1778673005.0,4.0,-0.07428840442014659,0.1588667822588163,-9.804653795316382,,,,,,,,,,
acc,1778673005.0,4.0,-0.07428764144454687,0.15853741784998682,-9.80456828158384,,,,,,,,,,
acc,1778673005.0,4.0,-0.07428688946566589,0.15859794060166382,-9.804526791259939,,,,,,,,,,
acc,1778673005.0,4.0,-0.07428614824930921,0.15865759713541658,-9.804485894756727,,,,,,,,,,
acc,1778673005.0,4.0,-0.07428541756831249,0.15833385188706392,-9.804403075975538,,,,,,,,,,
acc,1778673005.0,4.0,-0.07428469720227543,0.15801467692204052,-9.80432142633983,,,,,,,,,,
acc,1778673005.0,4.0,-0.07386166940359652,0.15769997747122236,-9.80428315011629,,,,,,,,,,
acc,1778673005.0,4.0,-0.07386552039556449,0.15738966154226586,-9.804203311650504,,,,,,,,,,
acc,1778673005.0,4.0,-0.0738693180968647,0.1570836398167786,-9.803746870250295,,,,,,,,,,
acc,1778673005.0,4.0,-0.07387306358396675,0.15715838591551973,-9.803715102438838,,,,,,,,,,
acc,1778673005.0,4.0,-0.07387675790254378,0.15723211087935357,-9.803683768619546,,,,,,,,,,
acc,1778673005.0,4.0,-0.07388040206858884,0.1573048349837521,-9.803652860175148,,,,,,,,,,
acc,1778673005.0,4.0,-0.07388399706948341,0.1570033156072278,-9.803580897498675,,,,,,,,,,
acc,1778673005.0,4.0,-0.07388754386502022,0.156705839303249,-9.803509899769544,,,,,,,,,,
acc,1778673005.0,4.0,-0.07389104338838273,0.15641232780399275,-9.803439848307825,,,,,,,,,,
acc,1778673005.0,4.0,-0.07389449654708337,0.1564928736175698,-9.803411852454586,,,,,,,,,,
acc,1778673005.0,4.0,-0.0734876957135042,0.15657235855364873,-9.803343207637038,,,,,,,,,,
acc,1778673005.0,4.0,-0.07349535515894229,0.15665080264466313,-9.803316371899905,,,,,,,,,,
acc,1778673005.0,4.0,-0.07350291487752095,0.15672822538460196,-9.803289885567152,,,,,,,,,,
acc,1778673005.0,4.0,-0.07351037672190365,0.15643830857208432,-9.803670791558469,,,,,,,,,,
acc,1778673005.0,4.0,-0.07351774249571429,0.15651755291586444,-9.803640753664375,,,,,,,,,,
acc,1778673005.0,4.0,-0.07352501395519803,0.15659578258323234,-9.803611100387545,,,,,,,,,,
acc,1778673005.0,4.0,-0.07353219281081548,0.15667301597610078,-9.803137337072629,,,,,,,,,,
acc,1778673005.0,4.0,-0.07353928072877304,0.156749271020276,-9.803113019441547,,,,,,,,,,
acc,1778673005.0,4.0,-0.07354627933249265,0.15682456518126922,-9.803089008234819,,,,,,,,,,
acc,1778673005.0,4.0,-0.07395447483340106,0.15689891547948434,-9.803025171616328,,,,,,,,,,
acc,1778673005.0,4.0,-0.07395718626839125,0.1569723385048104,-9.803002168415828,,,,,,,,,,
acc,1778673005.0,4.0,-0.07395986405743687,0.15704485043064553,-9.802979450659903,,,,,,,,,,
acc,1778673005.0,4.0,-0.07396250878292177,0.15711646702737783,-9.80295701340774,,,,,,,,,,
acc,1778673005.0,4.0,-0.0739651210128257,0.15718720367534758,-9.802497234880505,,,,,,,,,,
acc,1778673005.0,4.0,-0.07396770130118473,0.1572570753773135,-9.802479791999813,,,,,,,,,,
acc,1778673005.0,4.0,-0.07397025018853413,0.15732609677044515,-9.802462561391545,,,,,,,,,,
acc,1778673005.0,4.0,-0.07397276820233446,0.15739428213786197,-9.80244553949004,,,,,,,,,,
acc,1778673005.0,4.0,-0.07397525585738168,0.15746164541973878,-9.802783910444651,,,,,,,,,,
acc,1778673005.0,4.0,-0.0743715960957441,0.15752820022399652,-9.802724327830832,,,,,,,,,,
acc,1778673005.0,4.0,-0.07437006028802359,0.15759395983659588,-9.802704769152928,,,,,,,,,,
acc,1778673005.0,4.0,-0.07436854274890295,0.15765893723145097,-9.802685443127626,,,,,,,,,,
acc,1778673005.0,4.0,-0.07436704318244279,0.15737061204938949,-9.802627177877744,,,,,,,,,,
acc,1778673005.0,4.0,-0.07436556129955359,0.1574375915154168,-9.80260869800341,,,,,,,,,,
acc,1778673005.0,4.0,-0.07436409681778863,0.1575037844698929,-9.8029417337718,,,,,,,,,,
acc,1778673005.0,4.0,-0.07436264946114438,0.1575692033878725,-9.803270875140226,,,,,,,,,,
acc,1778673005.0,4.0,-0.07436121895986798,0.15763386046188466,-9.80324608027126,,,,,,,,,,
acc,1778673005.0,4.0,-0.07435980505027177,0.157697767610321,-9.803221572985773,,,,,,,,,,
acc,1778673005.0,4.0,-0.07435840747455419,0.15741199181463109,-9.803158579390887,,,,,,,,,,
acc,1778673005.0,4.0,-0.07396992121852543,0.15747789176692792,-9.803096310658193,,,,,,,,,,
acc,1778673005.0,4.0,-0.07358588795109446,0.1575430363469777,-9.803034755675219,,,,,,,,,,
acc,1778673005.0,4.0,-0.07359214245234659,0.15760743705835406,-9.803012490868038,,,,,,,,,,
acc,1778673005.0,4.0,-0.07359832580315702,0.15767110515511004,-9.802990479342583,,,,,,,,,,
acc,1778673005.0,4.0,-0.0736044390729638,0.15773405164892637,-9.802968717291861,,,,,,,,,,
acc,1778673005.0,4.0,-0.07361048330833647,0.15779628731601394,-9.802947200990289,,,,,,,,,,
acc,1778673005.0,4.0,-0.07361645953362361,0.15785782270378063,-9.802925926791385,,,,,,,,,,
acc,1778673005.0,4.0,-0.07362236875157818,0.15791866813727104,-9.802904891125543,,,,,,,,,,
acc,1778673005.0,4.0,-0.07362821194396187,0.1579788337253888,-9.802884090497884,,,,,,,,,,
acc,1778673005.0,4.0,-0.07363399007212897,0.1580383293669091,-9.802863521486172,,,,,,,,,,
acc,1778673005.0,4.0,-0.07363970407759085,0.15809716475629015,-9.802843180738812,,,,,,,,,,
acc,1778673005.0,4.0,-0.07402638940261379,0.1578124163703222,-9.8028230649729,,,,,,,,,,
acc,1778673005.0,4.0,-0.0740282658342558,0.15787330043709366,-9.80280317097235,,,,,,,,,,
acc,1778673005.0,4.0,-0.07403012164587472,0.15793351545158818,-9.802365414383152,,,,,,,,,,
acc,1778673005.0,4.0,-0.07403195712872014,0.15765143174271964,-9.80231205961171,,,,,,,,,,
acc,1778673005.0,4.0,-0.07441290863423551,0.15737242836587317,-9.802297199135594,,,,,,,,,,
acc,1778673005.0,4.0,-0.07403233494012675,0.15743728000797585,-9.802244633958482,,,,,,,,,,
acc,1778673005.0,4.0,-0.07403414243525255,0.15750142778744547,-9.802230461454814,,,,,,,,,,
acc,1778673005.0,4.0,-0.07403593037128663,0.1572248537894011,-9.802594258311197,,,,,,,,,,
acc,1778673005.0,4.0,-0.074037699016603,0.15729090781872132,-9.801897452395327,,,,,,,,,,
acc,1778673005.0,4.0,-0.07366247704254668,0.1573562512229201,-9.801509716298304,,,,,,,,,,
acc,1778673005.0,4.0,-0.07366784184110599,0.15742089364403963,-9.801841599833976,,,,,,,,,,
acc,1778673005.0,4.0,-0.073673149248747,0.1574848445409821,-9.802169932984546,,,,,,,,,,
acc,1778673005.0,4.0,-0.0736784000356729,0.15754811319420745,-9.802494763397238,,,,,,,,,,
acc,1778673005.0,4.0,-0.07330821713525656,0.15727287539680992,-9.802065382181693,,,,,,,,,,
acc,1778673005.0,4.0,-0.07294196223992226,0.15733804985605923,-9.802015555381956,,,,,,,,,,
acc,1778673005.0,4.0,-0.07257958347376148,0.1574025345644654,-9.801966255906535,,,,,,,,,,
acc,1778673005.0,4.0,-0.07259529064495768,0.15746633858375944,-9.802291737559166,,,,,,,,,,
acc,1778673005.0,4.0,-0.07261083243531405,0.157529470810395,-9.802613792214766,,,,,,,,,,
acc,1778673005.0,4.0,-0.07262621099526584,0.15759193997964405,-9.802596265617678,,,,,,,,,,
acc,1778673005.0,4.0,-0.07264142843654652,0.15765375466956819,-9.802578922643898,,,,,,,,,,
acc,1778673005.0,4.0,-0.07265648683313582,0.15771492330486986,-9.802561760929757,,,,,,,,,,
acc,1778673005.0,4.0,-0.07229885186693345,0.15744017811667246,-9.80213499102384,,,,,,,,,,
acc,1778673005.0,4.0,-0.07231714795360004,0.1575032739919238,-9.801712660438438,,,,,,,,,,
acc,1778673005.0,4.0,-0.07196336257820171,0.15756571504852945,-9.80166660444694,,,,,,,,,,
acc,1778673005.0,4.0,-0.07161324051131666,0.1576275095525353,-9.801621025347131,,,,,,,,,,
acc,1778673005.0,4.0,-0.07163800673369025,0.15735452837542646,-9.801575917147527,,,,,,,,,,
acc,1778673005.0,4.0,-0.0716625176458702,0.15708436130844453,-9.801939337552508,,,,,,,,,,
acc,1778673005.0,4.0,-0.0716867764256717,0.15715057299196325,-9.80192834594305,,,,,,,,,,
acc,1778673005.0,4.0,-0.0717107861969904,0.156882766568626,-9.801880431658658,,,,,,,,,,
acc,1778673005.0,4.0,-0.07210463924959883,0.15661770334409264,-9.801462909477639,,,,,,,,,,
acc,1778673005.0,4.0,-0.07249446627733655,0.15668818038446444,-9.80141947457755,,,,,,,,,,
acc,1778673005.0,4.0,-0.07251078077266357,0.15675793845534408,-9.80174602796082,,,,,,,,,,
acc,1778673005.0,4.0,-0.07289619593436829,0.15649464432627158,-9.801736905213517,,,,,,,,,,
acc,1778673005.0,4.0,-0.07327769479795504,0.15656613006593723,-9.801690976766995,,,,,,,,,,
acc,1778673005.0,4.0,-0.07328658068662075,0.1566368908197735,-9.802014267486008,,,,,,,,,,
acc,1778673005.0,4.0,-0.07329537662803423,0.15670693529911972,-9.802002633505031,,,,,,,,,,
acc,1778673005.0,4.0,-0.07330408369848952,0.15677627207479863,-9.801991117069521,,,,,,,,,,
acc,1778673005.0,4.0,-0.07331270295702692,0.15651371135736056,-9.802347722131454,,,,,,,,,,
acc,1778673005.0,4.0,-0.07368899133731004,0.15658477601403567,-9.802296198251305,,,,,,,,,,
acc,1778673005.0,4.0,-0.07369397799872654,0.15665512653276883,-9.802612721898127,,,,,,,,,,
acc,1778673006.0,5.0,-0.07369891463583329,0.1567247713215866,-9.802595498722203,,,,,,,,,,
acc,1778673006.0,5.0,-0.07370380183529406,0.15679371865698807,-9.802908815468824,,,,,,,,,,
acc,1778673006.0,5.0,-0.07370864017465059,0.15686197668678206,-9.802888832685438,,,,,,,,,,
acc,1778673006.0,5.0,-0.07371343022251835,0.15692955343284687,-9.80286904935031,,,,,,,,,,
acc,1778673006.0,5.0,-0.07371817253877674,0.15699645679381521,-9.802849463151087,,,,,,,,,,
acc,1778673006.0,5.0,-0.07372286767475433,0.1574289006982928,-9.802830071810734,,,,,,,,,,
acc,1778673006.0,5.0,-0.073727516173409,0.15749104934616623,-9.80314027566526,,,,,,,,,,
acc,1778673006.0,5.0,-0.07373211856950337,0.15755258162045344,-9.803118182728484,,,,,,,,,,
acc,1778673006.0,5.0,-0.07373667538977545,0.15797910295996664,-9.80309630856987,,,,,,,,,,
acc,1778673006.0,5.0,-0.07337578383924004,0.15803600362648806,-9.80303811317351,,,,,,,,,,
acc,1778673006.0,5.0,-0.07301845546060805,0.15809234249859802,-9.80298049235475,,,,,,,,,,
acc,1778673006.0,5.0,-0.07302967394200612,0.15814812592806266,-9.802959939211359,,,,,,,,,,
acc,1778673006.0,5.0,-0.07304078197822655,0.1578750110897991,-9.802903107256233,,,,,,,,,,
acc,1778673006.0,5.0,-0.07305178080957289,0.157932767503559,-9.802883297085808,,,,,,,,,,
acc,1778673006.0,5.0,-0.07306267165836412,0.15766193051049707,-9.80322816241184,,,,,,,,,,
acc,1778673006.0,5.0,-0.07307345572929427,0.15772161840436558,-9.803205339851779,,,,,,,,,,
acc,1778673006.0,5.0,-0.07344826051681827,0.15778072187412173,-9.803146329988676,,,,,,,,,,
acc,1778673006.0,5.0,-0.07345544184699868,0.15751168296256962,-9.80308789715592,,,,,,,,,,
acc,1778673006.0,5.0,-0.07346255304444738,0.1575726876124731,-9.803066412477767,,,,,,,,,,
acc,1778673006.0,5.0,-0.07383322678925455,0.15763309724438548,-9.80300877602471,,,,,,,,,,
acc,1778673006.0,5.0,-0.07420028959952328,0.15736579067199535,-9.802988046496482,,,,,,,,,,
acc,1778673006.0,5.0,-0.07420046362578493,0.15710108490131905,-9.80333084534868,,,,,,,,,,
acc,1778673006.0,5.0,-0.07420063596086106,0.15683895153874058,-9.803270824516842,,,,,,,,,,
acc,1778673006.0,5.0,-0.07456382102880689,0.15690607740644108,-9.803211386279282,,,,,,,,,,
acc,1778673006.0,5.0,-0.07492348491303914,0.15664597021716736,-9.803188809165126,,,,,,,,,,
acc,1778673006.0,5.0,-0.07491694319606569,0.15638838196984808,-9.803130180297682,,,,,,,,,,
acc,1778673006.0,5.0,-0.07491046475977085,0.15613328547800506,-9.803072118571027,,,,,,,,,,
acc,1778673006.0,5.0,-0.07490404892306418,0.15588065392285452,-9.803014617881018,,,,,,,,,,
acc,1778673006.0,5.0,-0.07489769501402027,0.15595653686651118,-9.802993900813409,,,,,,,,,,
acc,1778673006.0,5.0,-0.07489140236971,0.15603168814273316,-9.802973383500882,,,,,,,,,,
acc,1778673006.0,5.0,-0.07524720906514565,0.1557802788533618,-9.802953063810738,,,,,,,,,,
acc,1778673006.0,5.0,-0.07523768270769203,0.15585700900353103,-9.80293293963855,,,,,,,,,,
acc,1778673006.0,5.0,-0.07486645610920431,0.15593300159397327,-9.80287683250497,,,,,,,,,,
acc,1778673006.0,5.0,-0.07486046159595597,0.15568277039402809,-9.803219095358239,,,,,,,,,,
acc,1778673006.0,5.0,-0.07449297960606324,0.15576032379345975,-9.80316037800778,,,,,,,,,,
acc,1778673006.0,5.0,-0.07449044464788462,0.15583713389731516,-9.803138363143873,,,,,,,,,,
acc,1778673006.0,5.0,-0.07448793396265593,0.15591320852244722,-9.803116559078587,,,,,,,,,,
acc,1778673006.0,5.0,-0.07412425576182631,0.15598855538503237,-9.803058847220884,,,,,,,,,,
acc,1778673006.0,5.0,-0.07412513152822033,0.15606318210232914,-9.803037791987498,,,,,,,,,,
acc,1778673006.0,5.0,-0.07412599893174845,0.15613709619439603,-9.803016937814684,,,,,,,,,,
acc,1778673006.0,5.0,-0.07376600081838193,0.15621030508576975,-9.802960199654912,,,,,,,,,,
acc,1778673006.0,5.0,-0.07377018430152563,0.15628281610710495,-9.80254325247291,,,,,,,,,,
acc,1778673006.0,5.0,-0.07341368343953705,0.1563546364967765,-9.8024909210064,,,,,,,,,,
acc,1778673006.0,5.0,-0.07342111629620343,0.15642577340244532,-9.802475138892415,,,,,,,,,,
acc,1778673006.0,5.0,-0.07306803897031078,0.1568566733877135,-9.802423465664782,,,,,,,,,,
acc,1778673006.0,5.0,-0.07307865610401805,0.15692313950956635,-9.80240831460656,,,,,,,,,,
acc,1778673006.0,5.0,-0.07308917244258649,0.15698897462665232,-9.802717527928026,,,,,,,,,,
acc,1778673006.0,5.0,-0.07273944310408033,0.15705418521479392,-9.8026636620556,,,,,,,,,,
acc,1778673006.0,5.0,-0.07275308048121286,0.1571187776703895,-9.802646309176144,,,,,,,,,,
acc,1778673006.0,5.0,-0.07240662962497199,0.15718275831171527,-9.802593127520012,,,,,,,,,,
acc,1778673006.0,5.0,-0.07206345790481644,0.15724613338019872,-9.80254044922499,,,,,,,,,,
acc,1778673006.0,5.0,-0.07208331093134851,0.15730890904166425,-9.8025242443027,,,,,,,,,,
acc,1778673006.0,5.0,-0.07174328488472959,0.15737109138755154,-9.802472226157914,,,,,,,,,,
acc,1778673006.0,5.0,-0.07140647030250392,0.15743268643610767,-9.802420699312018,,,,,,,,,,
acc,1778673006.0,5.0,-0.07107283466949507,0.15717013759171106,-9.802405608139038,,,,,,,,,,
acc,1778673006.0,5.0,-0.07110178411478925,0.15723355307462583,-9.802390659304661,,,,,,,,,,
acc,1778673006.0,5.0,-0.07113046069241745,0.1572963708246779,-9.802699275375891,,,,,,,,,,
acc,1778673006.0,5.0,-0.07079959004418904,0.15735859686136686,-9.80232236436688,,,,,,,,,,
acc,1778673006.0,5.0,-0.07047183404681853,0.15742023713325742,-9.802272273836188,,,,,,,,,,
acc,1778673006.0,5.0,-0.0705062832440314,0.1571580943323644,-9.802222654536397,,,,,,,,,,
acc,1778673006.0,5.0,-0.07018136228198442,0.15722155135351257,-9.801850366532152,,,,,,,,,,
acc,1778673006.0,5.0,-0.07021846643207284,0.1572844121278012,-9.802163617189265,,,,,,,,,,
acc,1778673006.0,5.0,-0.06989632281432566,0.15734668260957063,-9.802115026931716,,,,,,,,,,
acc,1778673006.0,5.0,-0.06993603039213449,0.15776719656924407,-9.80242572057761,,,,,,,,,,
acc,1778673006.0,5.0,-0.06997536552954665,0.15782500855032294,-9.80241061533152,,,,,,,,,,
acc,1778673006.0,5.0,-0.07001433192835733,0.15788227858568982,-9.802001096688123,,,,,,,,,,
acc,1778673006.0,5.0,-0.07005293324798349,0.15793901205369487,-9.802312657370095,,,,,,,,,,
acc,1778673006.0,5.0,-0.07044971881031913,0.15799521427132784,-9.801940052755151,,,,,,,,,,
acc,1778673006.0,5.0,-0.07048431033084587,0.15805089049512333,-9.802252059376787,,,,,,,,,,
acc,1778673006.0,5.0,-0.07087699485734743,0.15810604592204816,-9.802202721728673,,,,,,,,,,
acc,1778673006.0,5.0,-0.07126600810134376,0.15783816545767307,-9.802189678890388,,,,,,,,,,
acc,1778673006.0,5.0,-0.07165138623341016,0.15757278818692153,-9.802499231846651,,,,,,,,,,
acc,1778673006.0,5.0,-0.07203316501823369,0.15763229975035686,-9.802125242612773,,,,,,,,,,
acc,1778673006.0,5.0,-0.0727695611607607,0.1576912557612428,-9.802077101432218,,,,,,,,,,
acc,1778673006.0,5.0,-0.07385720003780238,0.15742735738770902,-9.801707105159988,,,,,,,,,,
acc,1778673006.0,5.0,-0.07525694800879208,0.15748817294515774,-9.801662812319194,,,,,,,,,,
acc,1778673006.0,5.0,-0.0763214454493109,0.1575484215821834,-9.801260922879045,,,,,,,,,,
acc,1778673006.0,5.0,-0.07769817665965384,0.15760810883989915,-9.801220732419607,,,,,,,,,,
acc,1778673006.0,5.0,-0.07906208563869806,0.1576672401983818,-9.800858812603725,,,,,,,,,,
acc,1778673006.0,5.0,-0.08041329740028215,0.15772582107752242,-9.800500262055643,,,,,,,,,,
acc,1778673006.0,5.0,-0.08210973023708708,0.15778385683786092,-9.80010926208922,,,,,,,,,,
acc,1778673006.0,5.0,-0.08379038378659139,0.1578413527814049,-9.80011541394081,,,,,,,,,,
acc,1778673006.0,5.0,-0.08545541134336479,0.15789831415243324,-9.79972804902964,,,,,,,,,,
acc,1778673006.0,5.0,-0.08746260811607956,0.15795474613828478,-9.799737689383761,,,,,,,,,,
acc,1778673006.0,5.0,-0.0894511580003502,0.15801065387013233,-9.799747240178846,,,,,,,,,,
acc,1778673006.0,5.0,-0.09142124153319643,0.15806604242374261,-9.799363402888934,,,,,,,,,,
acc,1778673006.0,5.0,-0.09337303730746126,0.15812091682022214,-9.798983128657936,,,,,,,,,,
acc,1778673006.0,5.0,-0.09566416753987962,0.1581752820267496,-9.798963837756528,,,,,,,,,,
acc,1778673006.0,5.0,-0.09793404590880486,0.15822914295729507,-9.79894472579196,,,,,,,,,,
acc,1778673006.0,5.0,-0.10018287729261341,0.15828250447332604,-9.79931889016121,,,,,,,,,,
acc,1778673006.0,5.0,-0.10241086438628084,0.1583353713845011,-9.799296535109029,,,,,,,,,,
acc,1778673006.0,5.0,-0.10497547778277559,0.1583877484493511,-9.79927438719095,,,,,,,,,,
acc,1778673007.0,6.0,-0.10751633665873936,0.1584396403759483,-9.79925244441614,,,,,,,,,,
acc,1778673007.0,6.0,-0.110355148402421,0.15849105182256362,-9.799230704814825,,,,,,,,,,
acc,1778673007.0,6.0,-0.11316768374477981,0.15854198739831263,-9.799602035063723,,,,,,,,,,
acc,1778673007.0,6.0,-0.11738264079307505,0.15859245166378994,-9.799612813227439,,,,,,,,,,
acc,1778673007.0,6.0,-0.12155860922818902,0.15832108603668937,-9.799587786713264,,,,,,,,,,
acc,1778673007.0,6.0,-0.12605299187462296,0.15805222975780578,-9.799920030619289,,,,,,,,,,
acc,1778673007.0,6.0,-0.13082713155172485,0.15778585884409213,-9.800284900597031,,,,,,,,,,
acc,1778673007.0,6.0,-0.13555715163566104,0.15784321133710694,-9.800289434041522,,,,,,,,,,
acc,1778673007.0,6.0,-0.14060039238932825,0.15790003397466096,-9.8006508540683,,,,,,,,,,
acc,1778673007.0,6.0,-0.1455970546009025,0.15763513454539418,-9.800973249524755,,,,,,,,,,
acc,1778673007.0,6.0,-0.15054758191537912,0.15769384685402735,-9.801328351325909,,,,,,,,,,
acc,1778673007.0,6.0,-0.15545241339034246,0.15743088214320672,-9.801644495714939,,,,,,,,,,
acc,1778673007.0,6.0,-0.16066876466510707,0.15749144887312408,-9.80235018015067,,,,,,,,,,
acc,1778673007.0,6.0,-0.1658369932477403,0.1575514568534589,-9.80269260628217,,,,,,,,,,
acc,1778673007.0,6.0,-0.1709575560207883,0.15728986541698925,-9.802996204522657,,,,,,,,,,
acc,1778673007.0,6.0,-0.1763875982212932,0.15735170330124804,-9.803297003467367,,,,,,,,,,
acc,1778673007.0,6.0,-0.18176758638728954,0.15741297116496583,-9.803595029652639,,,,,,,,,,
acc,1778673007.0,6.0,-0.1874546258066773,0.15747367440772228,-9.80389030934373,,,,,,,,,,
acc,1778673007.0,6.0,-0.19308926889613856,0.15753381837404323,-9.804539460448973,,,,,,,,,,
acc,1778673007.0,6.0,-0.19867201126698983,0.15759340835406505,-9.804826069868222,,,,,,,,,,
acc,1778673007.0,6.0,-0.2045242253202913,0.15733156776016416,-9.805110039969758,,,,,,,,,,
acc,1778673007.0,6.0,-0.21032256061748966,0.15707213781723542,-9.805391395683696,,,,,,,,,,
acc,1778673007.0,6.0,-0.21642400259455616,0.15681509577059327,-9.805670161687837,,,,,,,,,,
acc,1778673007.0,6.0,-0.22211284803297893,0.15688122537541782,-9.805982005525065,,,,,,,,,,
acc,1778673007.0,6.0,-0.22881863141290928,0.15694674657530064,-9.805898908371828,,,,,,,,,,
acc,1778673007.0,6.0,-0.23613989728207824,0.15701166510177905,-9.805852213328052,,,,,,,,,,
acc,1778673007.0,6.0,-0.24339383580888674,0.15675525185007158,-9.806162326770318,,,,,,,,,,
acc,1778673007.0,6.0,-0.25093742488087817,0.15650119610306204,-9.806113235433864,,,,,,,,,,
acc,1778673007.0,6.0,-0.2584116715959247,0.1562494756932673,-9.806064595355949,,,,,,,,,,
acc,1778673007.0,6.0,-0.26617353145820466,0.1560000686748981,-9.806372706171452,,,,,,,,,,
acc,1778673007.0,6.0,-0.27386407183296485,0.15575295332129088,-9.806286080975097,,,,,,,,,,
acc,1778673007.0,6.0,-0.28148396214053434,0.15550810812237834,-9.806200251571449,,,,,,,,,,
acc,1778673007.0,6.0,-0.289033865138042,0.15526551178219755,-9.80650706373089,,,,,,,,,,
acc,1778673007.0,6.0,-0.2968706468285996,0.15502514321643548,-9.806811058418809,,,,,,,,,,
acc,1778673007.0,6.0,-0.3046354765637825,0.15478698155001042,-9.807112262035968,,,,,,,,,,
acc,1778673007.0,6.0,-0.3123290281938924,0.15455100611468928,-9.807410700721531,,,,,,,,,,
acc,1778673007.0,6.0,-0.3203081034727976,0.15431719644673972,-9.807350256667926,,,,,,,,,,
acc,1778673007.0,6.0,-0.32821396042566614,0.15408553228461633,-9.807290367266615,,,,,,,,,,
acc,1778673007.0,6.0,-0.336367768713724,0.1538559935666806,-9.80755152147771,,,,,,,,,,
acc,1778673007.0,6.0,-0.3444467813528783,0.1536285604289535,-9.807489804389903,,,,,,,,,,
acc,1778673007.0,6.0,-0.35280775798398234,0.15372366168969398,-9.807784714306408,,,,,,,,,,
acc,1778673007.0,6.0,-0.36109206437263786,0.15381789087088685,-9.807685277296775,,,,,,,,,,
acc,1778673007.0,6.0,-0.3696564287174524,0.15391125611085446,-9.807622351424111,,,,,,,,,,
acc,1778673007.0,6.0,-0.3781422832128578,0.15435976824628464,-9.807560002395284,,,,,,,,,,
acc,1778673007.0,6.0,-0.38690634391602197,0.15444818542030175,-9.807854208914634,,,,,,,,,,
acc,1778673007.0,6.0,-0.3955900892648766,0.15453579232418282,-9.808145719275018,,,,,,,,,,
acc,1778673007.0,6.0,-0.40593838653014275,0.15462259650552987,-9.80807861088842,,,,,,,,,,
acc,1778673007.0,6.0,-0.41654779971543304,0.15470860543834747,-9.807656196414806,,,,,,,,,,
acc,1778673007.0,6.0,-0.4273803540993077,0.15447351153423536,-9.807593554804036,,,,,,,,,,
acc,1778673007.0,6.0,-0.43811369589111,0.1542405707949984,-9.807531486911742,,,,,,,,,,
acc,1778673007.0,6.0,-0.44910461737291985,0.15365389348947978,-9.807825866222304,,,,,,,,,,
acc,1778673007.0,6.0,-0.4596390507870836,0.1534284411666458,-9.807761687771942,,,,,,,,,,
acc,1778673007.0,6.0,-0.4704328793574653,0.15320505284313168,-9.807342259756535,,,,,,,,,,
acc,1778673007.0,6.0,-0.48148373483687806,0.15330395030360638,-9.807282492317487,,,,,,,,,,
acc,1778673007.0,6.0,-0.4924334474231484,0.15340194260562565,-9.807223271899593,,,,,,,,,,
acc,1778673007.0,6.0,-0.5036387461827929,0.1531788249634395,-9.807484815720663,,,,,,,,,,
acc,1778673007.0,6.0,-0.5147415147763281,0.15327794855961135,-9.807388181872046,,,,,,,,,,
acc,1778673007.0,6.0,-0.5253869433716185,0.15305597885736122,-9.807683776139715,,,,,,,,,,
acc,1778673007.0,6.0,-0.5359349887572236,0.15283603970952836,-9.807585338247602,,,,,,,,,,
acc,1778673007.0,6.0,-0.5467422853657237,0.15293827290623171,-9.807879113214463,,,,,,,,,,
acc,1778673007.0,6.0,-0.5574507415635414,0.15303957110767089,-9.807778904276608,,,,,,,,,,
acc,1778673007.0,6.0,-0.5687726904515453,0.1528198072462897,-9.808070893772083,,,,,,,,,,
acc,1778673007.0,6.0,-0.5796354249631606,0.15260205281995956,-9.808324646161555,,,,,,,,,,
acc,1778673007.0,6.0,-0.5907545236546486,0.15238628923264452,-9.808611644545028,,,,,,,,,,
acc,1778673007.0,6.0,-0.6017719761653807,0.15249259813697272,-9.80886045465737,,,,,,,,,,
acc,1778673007.0,6.0,-0.6126887225583862,0.15192219470868878,-9.808751329399513,,,,,,,,,,
acc,1778673007.0,6.0,-0.6235056939098474,0.15203272141485608,-9.808998850103595,,,,,,,,,,
acc,1778673007.0,6.0,-0.6342238124028393,0.15182217173357374,-9.80927966969593,,,,,,,,,,
acc,1778673007.0,6.0,-0.6441327519757122,0.1512579308322633,-9.810233593873402,,,,,,,,,,
acc,1778673007.0,6.0,-0.6543067676641012,0.15105444864432904,-9.810467595528,,,,,,,,,,
acc,1778673007.0,6.0,-0.6647434259406915,0.15085282545617723,-9.811090608431668,,,,,,,,,,
acc,1778673007.0,6.0,-0.6747291645005052,0.15065304410606725,-9.811672373870033,,,,,,,,,,
acc,1778673007.0,6.0,-0.6842681132735255,0.15009951848098138,-9.811893256241548,,,,,,,,,,
acc,1778673007.0,6.0,-0.6933643815405206,0.14990660650683446,-9.812503233329734,,,,,,,,,,
acc,1778673007.0,6.0,-0.7030886819128175,0.15003545070878502,-9.81275209248466,,,,,,,,,,
acc,1778673007.0,6.0,-0.7127241831298047,0.14984313348100464,-9.812963127287144,,,,,,,,,,
acc,1778673007.0,6.0,-0.7222717038424148,0.149972547774018,-9.8139188476859,,,,,,,,,,
acc,1778673007.0,6.0,-0.731732054944824,0.14978081420638584,-9.813799275820834,,,,,,,,,,
acc,1778673007.0,6.0,-0.7411060396535596,0.1495908310322225,-9.813289731627146,,,,,,,,,,
acc,1778673007.0,6.0,-0.750038948288811,0.1497225305232895,-9.81353139722017,,,,,,,,,,
acc,1778673007.0,6.0,-0.7588903192194864,0.1498530278891995,-9.813379814487886,,,,,,,,,,
acc,1778673007.0,6.0,-0.7676609032157518,0.14998233419869314,-9.813229615259282,,,,,,,,,,
acc,1778673007.0,6.0,-0.776706920750938,0.1504659372076725,-9.813080786798555,,,,,,,,,,
acc,1778673007.0,6.0,-0.7860258462837003,0.15094512703849666,-9.81296886052333,,,,,,,,,,
acc,1778673007.0,6.0,-0.7949042877772772,0.15141994429786393,-9.81250250602809,,,,,,,,,,
acc,1778673007.0,6.0,-0.8037017202255532,0.1522458790177288,-9.812040406663941,,,,,,,,,,
acc,1778673007.0,6.0,-0.8124188886813226,0.1534197103022289,-9.81158252329578,,,,,,,,,,
acc,1778673008.0,7.0,-0.8210565311856274,0.15284123754003245,-9.810844474697513,,,,,,,,,,
acc,1778673008.0,7.0,-0.8292599545738131,0.15226804175886524,-9.810752909710448,,,,,,,,,,
acc,1778673008.0,7.0,-0.8377439654417614,0.15237534949574089,-9.810626641069069,,,,,,,,,,
acc,1778673008.0,7.0,-0.8461505936135508,0.152837086475292,-9.810892470191618,,,,,,,,,,
acc,1778673008.0,7.0,-0.8548359410342729,0.15365001231667447,-9.810409537402357,,,,,,,,,,
acc,1778673008.0,7.0,-0.8637619357277018,0.15410013213192017,-9.810321937674098,,,,,,,,,,
acc,1778673008.0,7.0,-0.8729619080901868,0.1541907625307383,-9.810235136785153,,,,,,,,,,
acc,1778673008.0,7.0,-0.8820779894154853,0.15396073339972816,-9.809793759304503,,,,,,,,,,
acc,1778673008.0,7.0,-0.8907555891261115,0.15373280168554918,-9.810067136904014,,,,,,,,,,
acc,1778673008.0,7.0,-0.8997094244319027,0.15418213073858988,-9.809982659370235,,,,,,,,,,
acc,1778673008.0,7.0,-0.9082262817289062,0.15498271881009087,-9.810218774714293,,,,,,,,,,
acc,1778673008.0,7.0,-0.9166654959399555,0.15542065983807246,-9.810132921101667,,,,,,,,,,
acc,1778673008.0,7.0,-0.925027779359182,0.15517946574235972,-9.81001231867604,,,,,,,,,,
acc,1778673008.0,7.0,-0.9333138376255533,0.15526026535876986,-9.810248150595783,,,,,,,,,,
acc,1778673008.0,7.0,-0.9418796891124495,0.15569565691996967,-9.810481832945072,,,,,,,,,,
acc,1778673008.0,7.0,-0.9500121556665874,0.15545197483990242,-9.810358063485646,,,,,,,,,,
acc,1778673008.0,7.0,-0.9580705041605867,0.15553029130817791,-9.810270950872768,,,,,,,,,,
acc,1778673008.0,7.0,-0.966055413989725,0.15560789404995334,-9.810504413296007,,,,,,,,,,
acc,1778673008.0,7.0,-0.9746781464792871,0.15604009283351852,-9.81073574820194,,,,,,,,,,
acc,1778673008.0,7.0,-0.9835776021880681,0.15717893856552648,-9.810964975086192,,,,,,,,,,
acc,1778673008.0,7.0,-0.9923959663574313,0.15866268938270037,-9.811582921873612,,,,,,,,,,
acc,1778673008.0,7.0,-1.0007786963480305,0.1597776445700118,-9.812870274320085,,,,,,,,,,
acc,1778673008.0,7.0,-1.0090850506502276,0.1608824413160918,-9.813080076362537,,,,,,,,,,
acc,1778673008.0,7.0,-1.017315728726509,0.16126663331335261,-9.81364323209632,,,,,,,,,,
acc,1778673008.0,7.0,-1.0254714235364353,0.16129205651087064,-9.813845997726583,,,,,,,,,,
acc,1778673008.0,7.0,-1.0339080849357238,0.1620277747801793,-9.814046916202555,,,,,,,,,,
acc,1778673008.0,7.0,-1.0422678934984144,0.16346728900108437,-9.814636776457748,,,,,,,,,,
acc,1778673008.0,7.0,-1.0505515526728249,0.1645384469550476,-9.814830497376828,,,,,,,,,,
acc,1778673008.0,7.0,-1.0591150071189017,0.16524460952144585,-9.815377692418204,,,,,,,,,,
acc,1778673008.0,7.0,-1.0668899784183976,0.1662995738514777,-9.815919903495754,,,,,,,,,,
acc,1778673008.0,7.0,-1.0749493744698218,0.1662792254185855,-9.815782230738431,,,,,,,,,,
acc,1778673008.0,7.0,-1.0836103062828937,0.16593935899314788,-9.81600104480698,,,,,,,,,,
acc,1778673008.0,7.0,-1.0921923622914629,0.16560258775865605,-9.81657308525894,,,,,,,,,,
acc,1778673008.0,7.0,-1.1003765690672571,0.16491366892251855,-9.816784701815868,,,,,,,,,,
acc,1778673008.0,7.0,-1.1084862474648716,0.1642310236330987,-9.816603653139971,,,,,,,,,,
acc,1778673008.0,7.0,-1.1165220789883175,0.16422948663780004,-9.816779467608526,,,,,,,,,,
acc,1778673008.0,7.0,-1.1248044215605535,0.16493838384283305,-9.815994623893403,,,,,,,,,,
acc,1778673008.0,7.0,-1.1330113505829886,0.1659960229769939,-9.815856284108145,,,,,,,,,,
acc,1778673008.0,7.0,-1.14082388042051,0.1666888398666008,-9.815079853899885,,,,,,,,,,
acc,1778673008.0,7.0,-1.1492401391141975,0.166664954180613,-9.814914318334038,,,,,,,,,,
acc,1778673008.0,7.0,-1.1572245889169852,0.16632161840031393,-9.814750289865277,,,,,,,,,,
acc,1778673008.0,7.0,-1.1654915279527571,0.16630107230540725,-9.814587754721288,,,,,,,,,,
acc,1778673008.0,7.0,-1.1736832068230572,0.16663589852895738,-9.814426699256993,,,,,,,,,,
acc,1778673008.0,7.0,-1.1821554945320143,0.16696767667814977,-9.81426710995334,,,,,,,,,,
acc,1778673008.0,7.0,-1.1901954800980155,0.1672964345989146,-9.81449966602826,,,,,,,,,,
acc,1778673008.0,7.0,-1.1988726173362125,0.16797737372086552,-9.813984242838425,,,,,,,,,,
acc,1778673008.0,7.0,-1.2074707702201821,0.1682969443711096,-9.813864195787005,,,,,,,,,,
acc,1778673008.0,7.0,-1.2163458266748017,0.16861360619256913,-9.813745241440182,,,,,,,,,,
acc,1778673008.0,7.0,-1.2247849390953343,0.16857222273002634,-9.81298808911361,,,,,,,,,,
acc,1778673008.0,7.0,-1.2331472407495057,0.16888637547153057,-9.813196748966504,,,,,,,,,,
acc,1778673008.0,7.0,-1.241433432962579,0.16884251282633925,-9.813083866460797,,,,,,,,,,
acc,1778673008.0,7.0,-1.249644210596591,0.16950935493468064,-9.813291651549982,,,,,,,,,,
acc,1778673008.0,7.0,-1.257780262111525,0.1705252685176373,-9.813497545591325,,,,,,,,,,
acc,1778673008.0,7.0,-1.2658422696258609,0.17082165313729036,-9.81370156584678,,,,,,,,,,
acc,1778673008.0,7.0,-1.2741860520529693,0.17111534051370095,-9.813903729419332,,,,,,,,,,
acc,1778673008.0,7.0,-1.2817436332146122,0.17176149522404122,-9.81449469539165,,,,,,,,,,
acc,1778673008.0,7.0,-1.289232440352786,0.17240176992353368,-9.814014891053569,,,,,,,,,,
acc,1778673008.0,7.0,-1.2966531010548215,0.1733913430734593,-9.814959970224498,,,,,,,,,,
acc,1778673008.0,7.0,-1.3043613589879492,0.17472703341366427,-9.815541318661486,,,,,,,,,,
acc,1778673008.0,7.0,-1.311999477024934,0.17605056988167733,-9.816117377223726,,,,,,,,,,
acc,1778673008.0,7.0,-1.3192129789615894,0.1770069472483193,-9.816688194172434,,,,,,,,,,
acc,1778673008.0,7.0,-1.3256506103644745,0.17759950933019508,-9.81686319449132,,,,,,,,,,
acc,1778673008.0,7.0,-1.333095008710855,0.17783156021691546,-9.817036602540144,,,,,,,,,,
acc,1778673008.0,7.0,-1.3415014982658624,0.17877172465860008,-9.817208432842623,,,,,,,,,,
acc,1778673008.0,7.0,-1.3491568016507964,0.18144337092449953,-9.817023585457155,,,,,,,,,,
acc,1778673008.0,7.0,-1.3570620508644702,0.18270579009117083,-9.816840419823334,,,,,,,,,,
acc,1778673008.0,7.0,-1.365250479344732,0.18395672394840806,-9.81601972770479,,,,,,,,,,
acc,1778673008.0,7.0,-1.3733644122592719,0.18693628452575306,-9.816591402578556,,,,,,,,,,
acc,1778673008.0,7.0,-1.3810494337536237,0.18917853927039943,-9.81605706537339,,,,,,,,,,
acc,1778673008.0,7.0,-1.388664542410099,0.19037060668946557,-9.815882690999109,,,,,,,,,,
acc,1778673008.0,7.0,-1.3958907925085937,0.1918714219750617,-9.815709902926352,,,,,,,,,,
acc,1778673008.0,7.0,-1.4030513059733722,0.1933585844610232,-9.815538686693221,,,,,,,,,,
acc,1778673008.0,7.0,-1.410466261058378,0.19518730435047163,-9.815404534726582,,,,,,,,,,
acc,1778673008.0,7.0,-1.4181688489748552,0.1969993891592698,-9.8148810039626,,,,,,,,,,
acc,1778673008.0,7.0,-1.425126714786919,0.19879499051889307,-9.814752832141503,,,,,,,,,,
acc,1778673008.0,7.0,-1.4313111228749187,0.19918943914369602,-9.814590320105877,,,,,,,,,,
acc,1778673008.0,7.0,-1.4377943541735225,0.1999353768462024,-9.813825649920872,,,,,,,,,,
acc,1778673008.0,7.0,-1.445248342792837,0.20134918283295125,-9.812677345415926,,,,,,,,,,
acc,1778673008.0,7.0,-1.452989613775897,0.20310520207334742,-9.812533702380568,,,,,,,,,,
acc,1778673008.0,7.0,-1.4603053933574786,0.20591048005779633,-9.81175222557819,,,,,,,,,,
acc,1778673008.0,7.0,-1.4665249220133236,0.2086902428063948,-9.811297429561778,,,,,,,,,,
acc,1778673008.0,7.0,-1.4733625203782956,0.21179978976316413,-9.810562712847341,,,,,,,,,,
acc,1778673008.0,7.0,-1.4812031431499588,0.21452598989868557,-9.811183938405218,,,,,,,,,,
acc,1778673008.0,7.0,-1.4879072477554884,0.2161621875260371,-9.810698801691876,,,,,,,,,,
acc,1778673008.0,7.0,-1.4945503795037587,0.2184936359582035,-9.809934024512653,,,,,,,,,,
acc,1778673008.0,7.0,-1.5028729056326602,0.22009375235013515,-9.810880510398436,,,,,,,,,,
acc,1778673008.0,7.0,-1.5100900634390342,0.2210046956757238,-9.812173455260703,,,,,,,,,,
acc,1778673008.0,7.0,-1.5172415852124332,0.22222691582183296,-9.81274452034059,,,,,,,,,,
acc,1778673008.0,7.0,-1.525357737296866,0.223438020717585,-9.81334589559241,,,,,,,,,,
acc,1778673008.0,7.0,-1.5334000796218996,0.22431855330520242,-9.815006977984691,,,,,,,,,,
acc,1778673008.0,7.0,-1.541049736720769,0.22622074622093924,-9.815907330912479,,,,,,,,,,
acc,1778673008.0,7.0,-1.5489493746600733,0.2288157486187457,-9.817900165595237,,,,,,,,,,
acc,1778673008.0,7.0,-1.5564576299739217,0.23138715256824846,-9.819519830011705,,,,,,,,,,
acc,1778673008.0,7.0,-1.5638976075765845,0.23393517297938352,-9.820769710362793,,,,,,,,,,
acc,1778673008.0,7.0,-1.5712699292454346,0.23539487043130886,-9.821972722188296,,,,,,,,,,
acc,1778673008.0,7.0,-1.578220167843843,0.23684129419664043,-9.822809742168108,,,,,,,,,,
acc,1778673009.0,8.0,-1.585462247339184,0.23862961598748628,-9.82399420168702,,,,,,,,,,
acc,1778673009.0,8.0,-1.5929580110761934,0.24004662677125926,-9.825167890649986,,,,,,,,,,
acc,1778673009.0,8.0,-1.5993559913021675,0.24145075251433956,-9.826011370310106,,,,,,,,,,
acc,1778673009.0,8.0,-1.6056957946559287,0.24319715711352927,-9.826492133624829,,,,,,,,,,
acc,1778673009.0,8.0,-1.613007566470272,0.24457263662093426,-9.827288059733409,,,,,,,,,,
acc,1778673009.0,8.0,-1.620962932478705,0.24629065303899153,-9.828076748648632,,,,,,,,,,
acc,1778673009.0,8.0,-1.6288459627850376,0.24834808151560206,-9.828893776874198,,,,,,,,,,
acc,1778673009.0,8.0,-1.635947242503552,0.25315609345475576,-9.82895780139255,,,,,,,,,,
acc,1778673009.0,8.0,-1.6426644242655384,0.2572458189876738,-9.82831116382208,,,,,,,,,,
acc,1778673009.0,8.0,-1.6486104623874387,0.2599137235449469,-9.828415984328062,,,,,,,,,,
acc,1778673009.0,8.0,-1.6552125032363862,0.2625573707085472,-9.827525759513302,,,,,,,,,,
acc,1778673009.0,8.0,-1.6613994897532738,0.2648219540806715,-9.826927654203946,,,,,,,,,,
acc,1778673009.0,8.0,-1.6675302234665645,0.2667109124910982,-9.827045048059777,,,,,,,,,,
acc,1778673009.0,8.0,-1.6732501824426376,0.2689377303842671,-9.825812258308618,,,,,,,,,,
acc,1778673009.0,8.0,-1.679628192419656,0.27078926938520725,-9.82554925557234,,,,,,,,,,
acc,1778673009.0,8.0,-1.6855931918859346,0.27333402874182433,-9.825324144459321,,,,,,,,,,
acc,1778673009.0,8.0,-1.690793897811646,0.27585565174168464,-9.823716485279613,,,,,,,,,,
acc,1778673009.0,8.0,-1.6959473205712092,0.27973894854522613,-9.822868992561025,,,,,,,,,,
acc,1778673009.0,8.0,-1.701763947349742,0.28358693996714357,-9.821674176468392,,,,,,,,,,
acc,1778673009.0,8.0,-1.7078827104618248,0.28704491990335174,-9.822158832750036,,,,,,,,,,
acc,1778673009.0,8.0,-1.7146203889546707,0.2911815145705913,-9.82192903914821,,,,,,,,,,
acc,1778673009.0,8.0,-1.7206222709308703,0.293185876814271,-9.822091859863512,,,,,,,,,,
acc,1778673009.0,8.0,-1.7258595484038635,0.2955270321229718,-9.822253200329152,,,,,,,,,,
acc,1778673009.0,8.0,-1.7300196602298084,0.29887645594893325,-9.822377574399638,,,,,,,,,,
acc,1778673009.0,8.0,-1.7344614657648103,0.30184041632786446,-9.821187244647716,,,,,,,,,,
acc,1778673009.0,8.0,-1.7399279460617025,0.3037478841625693,-9.8213568053533,,,,,,,,,,
acc,1778673009.0,8.0,-1.7453447306207472,0.3052829906053547,-9.82152482458358,,,,,,,,,,
acc,1778673009.0,8.0,-1.7510672822287834,0.30680414151225877,-9.822046326989133,,,,,,,,,,
acc,1778673009.0,8.0,-1.7553177538050297,0.3076014352849526,-9.822527589335245,,,,,,,,,,
acc,1778673009.0,8.0,-1.7588550574788258,0.30874649899076045,-9.823004476627318,,,,,,,,,,
acc,1778673009.0,8.0,-1.7630347306544987,0.3084966019629163,-9.82454207091033,,,,,,,,,,
acc,1778673009.0,8.0,-1.7689159630527707,0.3110180726919002,-9.825000647720225,,,,,,,,,,
acc,1778673009.0,8.0,-1.7747437315575012,0.3152561729281913,-9.825455055794713,,,,,,,,,,
acc,1778673009.0,8.0,-1.7805185225515925,0.32052077233965326,-9.825905333058481,,,,,,,,,,
acc,1778673009.0,8.0,-1.7859213118779393,0.3264120340275051,-9.825676997132755,,,,,,,,,,
acc,1778673009.0,8.0,-1.7915944930427514,0.3339892812616513,-9.82577025136759,,,,,,,,,,
acc,1778673009.0,8.0,-1.7972161030040248,0.34082314072442327,-9.826572664333847,,,,,,,,,,
acc,1778673009.0,8.0,-1.803141622449579,0.34794988088125395,-9.826693276616279,,,,,,,,,,
acc,1778673009.0,8.0,-1.8093682792670607,0.3543018247345315,-9.826102779944055,,,,,,,,,,
acc,1778673009.0,8.0,-1.8151833336464394,0.3602410181799853,-9.826582663120055,,,,,,,,,,
acc,1778673009.0,8.0,-1.8205905190693314,0.3643867021409779,-9.825673662921902,,,,,,,,,,
acc,1778673009.0,8.0,-1.826303561492892,0.3684947015448761,-9.825056928919281,,,,,,,,,,
acc,1778673009.0,8.0,-1.8330296781174857,0.37292036717461774,-9.824445801039152,,,,,,,,,,
acc,1778673009.0,8.0,-1.8396946545788138,0.37521128490543393,-9.824195235627558,,,,,,,,,,
acc,1778673009.0,8.0,-1.8455890427124373,0.3778363759815287,-9.822597944270138,,,,,,,,,,
acc,1778673009.0,8.0,-1.8510748547214013,0.38043760533828463,-9.822364173174321,,,,,,,,,,
acc,1778673009.0,8.0,-1.856865798024312,0.3812756881140525,-9.82149352094151,,,,,,,,,,
acc,1778673009.0,8.0,-1.8626041030095184,0.38175115723322056,-9.820311284803394,,,,,,,,,,
acc,1778673009.0,8.0,-1.8679352533527431,0.3846717995165299,-9.820843792991703,,,,,,,,,,
acc,1778673009.0,8.0,-1.8739279433082852,0.388595388974292,-9.819986962449608,,,,,,,,,,
acc,1778673009.0,8.0,-1.8798661619557209,0.39283831743403225,-9.820522416275525,,,,,,,,,,
acc,1778673009.0,8.0,-1.885750404686132,0.398072170907278,-9.819952507485743,,,,,,,,,,
acc,1778673009.0,8.0,-1.892255650367839,0.4043234474213684,-9.819387778902653,,,,,,,,,,
acc,1778673009.0,8.0,-1.8969622850758092,0.41087289516357606,-9.820958172741427,,,,,,,,,,
acc,1778673009.0,8.0,-1.9026911320742927,0.41562333313090544,-9.820774804580896,,,,,,,,,,
acc,1778673009.0,8.0,-1.9083679072418567,0.4185911161775795,-9.82339757077126,,,,,,,,,,
acc,1778673009.0,8.0,-1.9129280943105644,0.4211769243231738,-9.82386652715719,,,,,,,,,,
acc,1778673009.0,8.0,-1.9174468323472273,0.4251237102917953,-9.824721717339626,,,,,,,,,,
acc,1778673009.0,8.0,-1.9222794968734271,0.4293896122989001,-9.82556913445261,,,,,,,,,,
acc,1778673009.0,8.0,-1.9270682361102225,0.43290675335602424,-9.826728341106516,,,,,,,,,,
acc,1778673009.0,8.0,-1.9318134494883736,0.4374569101026036,-9.826847533884443,,,,,,,,,,
acc,1778673009.0,8.0,-1.9368705208340065,0.4416107125673226,-9.827285134345406,,,,,,,,,,
acc,1778673009.0,8.0,-1.9418816277698352,0.44640124782047386,-9.827044270131786,,,,,,,,,,
acc,1778673009.0,8.0,-1.9468471882538128,0.4515032285107601,-9.827480081535159,,,,,,,,,,
acc,1778673009.0,8.0,-1.9510576340849766,0.45655883696968114,-9.827237446312829,,,,,,,,,,
acc,1778673009.0,8.0,-1.9549103216670074,0.4619234901245274,-9.82664203022612,,,,,,,,,,
acc,1778673009.0,8.0,-1.9583730064479608,0.46620991441610576,-9.826726509687562,,,,,,,,,,
acc,1778673009.0,8.0,-1.96109423022819,0.47077686815578845,-9.825106270030235,,,,,,,,,,
acc,1778673009.0,8.0,-1.963790720999329,0.4749828249668779,-9.824246232138204,,,,,,,,,,
acc,1778673009.0,8.0,-1.9675276752126132,0.4774111104060538,-9.824352483634469,,,,,,,,,,
acc,1778673009.0,8.0,-1.9701656944195352,0.4783973710986558,-9.822753824158303,,,,,,,,,,
acc,1778673009.0,8.0,-1.9724247534593011,0.48043962787093797,-9.821560174829454,,,,,,,,,,
acc,1778673009.0,8.0,-1.9750182636118692,0.4834927853178806,-9.820696861090378,,,,,,,,,,
acc,1778673009.0,8.0,-1.9772332190747794,0.4861632104454746,-9.819521907416636,,,,,,,,,,
acc,1778673009.0,8.0,-1.9797830258611742,0.48848987871218646,-9.81871262416674,,,,,,,,,,
acc,1778673009.0,8.0,-1.982309658183221,0.49182485957968103,-9.818194685583482,,,,,,,,,,
acc,1778673009.0,8.0,-1.9848133267390449,0.49757893295323513,-9.817397465352666,,,,,,,,,,
acc,1778673009.0,8.0,-1.988004221245242,0.5046651569017151,-9.81685597411459,,,,,,,,,,
acc,1778673009.0,8.0,-1.9901011536400786,0.5116869767834983,-9.815715931093774,,,,,,,,,,
acc,1778673009.0,8.0,-1.9928889982914046,0.5182899883679116,-9.815225227413118,,,,,,,,,,
acc,1778673009.0,8.0,-1.9956515054036983,0.5255429577355034,-9.814703478226717,,,,,,,,,,
acc,1778673009.0,8.0,-1.999418358234695,0.5316650590397368,-9.813902483349423,,,,,,,,,,
acc,1778673009.0,8.0,-2.0031509759303607,0.5367020675271139,-9.813392755704767,,,,,,,,,,
acc,1778673009.0,8.0,-2.0065301865023524,0.5406283409513143,-9.813597637586765,,,,,,,,,,
acc,1778673009.0,8.0,-2.008458750916027,0.5441994475946906,-9.81380065740489,,,,,,,,,,
acc,1778673009.0,8.0,-2.0114347419895564,0.5484125597884969,-9.81304337501441,,,,,,,,,,
acc,1778673009.0,8.0,-2.0154131342773396,0.5539718172083501,-9.813996893304743,,,,,,,,,,
acc,1778673009.0,8.0,-2.0190003821337164,0.5601905151563786,-9.813486309946386,,,,,,,,,,
acc,1778673010.0,9.0,-2.021170594252644,0.5649682708338365,-9.812980366964055,,,,,,,,,,
acc,1778673010.0,9.0,-2.023676069316268,0.5707320502761835,-9.814608923658916,,,,,,,,,,
acc,1778673010.0,9.0,-2.0268687373428946,0.5750590153329858,-9.813808794281274,,,,,,,,,,
acc,1778673010.0,9.0,-2.0310618334810826,0.5803760996530787,-9.815429820030188,,,,,,,,,,
acc,1778673010.0,9.0,-2.0352168215316593,0.5863548232052207,-9.814906216972275,,,,,,,,,,
acc,1778673010.0,9.0,-2.038624086004533,0.5898298441561216,-9.815452319977002,,,,,,,,,,
acc,1778673010.0,9.0,-2.0416809040484134,0.593273283241327,-9.815993459860067,,,,,,,,,,
acc,1778673010.0,9.0,-2.0447099410215723,0.5966854275541975,-9.815855216645296,,,,,,,,,,
acc,1778673010.0,9.0,-2.0490958744265293,0.6007765219301987,-9.816428190167947,,,,,,,,,,
acc,1778673010.0,9.0,-2.053796923006819,0.6048304356529867,-9.818380380380747,,,,,,,,,,
acc,1778673010.0,9.0,-2.0577452882825362,0.6078180679049485,-9.81995985361417,,,,,,,,,,
acc,1778673010.0,9.0,-2.061302795309484,0.6104235641109902,-9.822625401793234,,,,,,,,,,
acc,1778673010.0,9.0,-2.0641535084744267,0.612650406555401,-9.824876245714474,,,,,,,,,,
acc,1778673010.0,9.0,-2.0655583981504213,0.6176258425966026,-9.826396684852185,,,,,,,,,,
acc,1778673010.0,9.0,-2.0676604775254925,0.6229110446576943,-9.82864875916587,,,,,,,,,,
acc,1778673010.0,9.0,-2.0697434530286145,0.627793231305699,-9.83123534041149,,,,,,,,,,
acc,1778673010.0,9.0,-2.0714525154758667,0.6336959877433719,-9.833443440886482,,,,,,,,,,
acc,1778673010.0,9.0,-2.0727910723465808,0.6402195511705582,-9.83694489064782,,,,,,,,,,
acc,1778673010.0,9.0,-2.073443004155333,0.6470388106478799,-9.838391147566595,,,,,,,,,,
acc,1778673010.0,9.0,-2.0737340380857217,0.6531216367662395,-9.840534216188777,,,,,,,,,,
acc,1778673010.0,9.0,-2.075051859432522,0.6598236415840318,-9.84194785370222,,,,,,,,,,
acc,1778673010.0,9.0,-2.0774226407279777,0.6661097568905583,-9.843313148646192,,,,,,,,,,
acc,1778673010.0,9.0,-2.0790619132461035,0.67201926709821,-9.845375980845231,,,,,,,,,,
acc,1778673010.0,9.0,-2.079301885205052,0.6768101459195156,-9.846355140092987,,,,,,,,,,
acc,1778673010.0,9.0,-2.0785102462541243,0.6812025043128868,-9.84768038201,,,,,,,,,,
acc,1778673010.0,9.0,-2.078400250152702,0.6852354687223702,-9.846224759150425,,,,,,,,,,
acc,1778673010.0,9.0,-2.079356187114132,0.6899062391419792,-9.847586679862612,,,,,,,,,,
acc,1778673010.0,9.0,-2.080303436618861,0.695244514309371,-9.846167405344543,,,,,,,,,,
acc,1778673010.0,9.0,-2.0808870971499016,0.7005342758549025,-9.847849321951623,,,,,,,,,,
acc,1778673010.0,9.0,-2.0804005307047717,0.7068053921768497,-9.848131545772057,,,,,,,,,,
acc,1778673010.0,9.0,-2.0802733571541077,0.7123450615962266,-9.847310778175594,,,,,,,,,,
acc,1778673010.0,9.0,-2.0801473393367798,0.7164144856693234,-9.847597895673763,,,,,,,,,,
acc,1778673010.0,9.0,-2.0796674960322306,0.7187075510051983,-9.844723126358906,,,,,,,,,,
acc,1778673010.0,9.0,-2.079192013456432,0.7213347479340554,-9.84464329273106,,,,,,,,,,
acc,1778673010.0,9.0,-2.0784013768008838,0.7250029987672683,-9.84325077052643,,,,,,,,,,
acc,1778673010.0,9.0,-2.077617925288287,0.7300223172180985,-9.841870903276552,,,,,,,,,,
acc,1778673010.0,9.0,-2.076841593612243,0.7349960211970665,-9.840858555132815,,,,,,,,,,
acc,1778673010.0,9.0,-2.0750073890785514,0.7381851526196991,-9.839109962841782,,,,,,,,,,
acc,1778673010.0,9.0,-2.073544823141405,0.742374725274812,-9.83840668462584,,,,,,,,,,
acc,1778673010.0,9.0,-2.0728055060950616,0.745851770924374,-9.837674293390688,,,,,,,,,,
acc,1778673010.0,9.0,-2.0727473516359285,0.7506816191433308,-9.83630960919817,,,,,,,,,,
acc,1778673010.0,9.0,-2.0726897256685732,0.7564969970772011,-9.835986748932507,,,,,,,,,,
acc,1778673010.0,9.0,-2.072277654166061,0.7615850740834165,-9.834992370299465,,,,,,,,,,
acc,1778673010.0,9.0,-2.071549853450343,0.7673013643217058,-9.833652059197055,,,,,,,,,,
acc,1778673010.0,9.0,-2.0722130565998884,0.773320684704674,-9.833317854232572,,,,,,,,,,
acc,1778673010.0,9.0,-2.0742546311837753,0.7789303254901014,-9.83202825604621,,,,,,,,,,
acc,1778673010.0,9.0,-2.074893254684829,0.784488987686108,-9.831389333688538,,,,,,,,,,
acc,1778673010.0,9.0,-2.074816128355178,0.7899971346235003,-9.828661873979724,,,,,,,,,,
acc,1778673010.0,9.0,-2.074384734472497,0.7958102029583687,-9.827059619038192,,,,,,,,,,
acc,1778673010.0,9.0,-2.075377152438154,0.8015704441867737,-9.825791398136378,,,,,,,,,,
acc,1778673010.0,9.0,-2.075650606160389,0.807278338435708,-9.825173648780263,,,,,,,,,,
acc,1778673010.0,9.0,-2.0762765429316534,0.8125793842850911,-9.82324811681044,,,,,,,,,,
acc,1778673010.0,9.0,-2.0768967914281546,0.8171578061833351,-9.822688983475683,,,,,,,,,,
acc,1778673010.0,9.0,-2.0775114033481636,0.8227240479777562,-9.82181544934072,,,,,,,,,,
acc,1778673010.0,9.0,-2.078475406764954,0.8265003348925182,-9.819565468376048,,,,,,,,,,
acc,1778673010.0,9.0,-2.0790756729741573,0.829532360061994,-9.820069217938004,,,,,,,,,,
acc,1778673010.0,9.0,-2.0793155166700714,0.8315074146654338,-9.818154579442883,,,,,,,,,,
acc,1778673010.0,9.0,-2.0788432368031704,0.8355588577764392,-9.819736070343348,,,,,,,,,,
acc,1778673010.0,9.0,-2.079795136331706,0.8402479228754949,-9.818924875469149,,,,,,,,,,
acc,1778673010.0,9.0,-2.08141282498028,0.8445749034795703,-9.81840502980132,,,,,,,,,,
acc,1778673010.0,9.0,-2.0826608456600506,0.8491820346568619,-9.81856435672342,,,,,,,,,,
acc,1778673010.0,9.0,-2.082868109574562,0.8534278261648973,-9.817763810207792,,,,,,,,,,
acc,1778673010.0,9.0,-2.081689098894759,0.8572800669346129,-9.81661556265769,,,,,,,,,,
acc,1778673010.0,9.0,-2.0819051932220063,0.8621267151183616,-9.815477749843092,,,,,,,,,,
acc,1778673010.0,9.0,-2.084213656744636,0.8672842951160951,-9.81676408178833,,,,,,,,,,
acc,1778673010.0,9.0,-2.085436223884266,0.8727499721860408,-9.815979895681043,,,,,,,,,,
acc,1778673010.0,9.0,-2.086328209192713,0.8791953938470247,-9.81687119334014,,,,,,,,,,
acc,1778673010.0,9.0,-2.0882415023169187,0.8852272762224928,-9.817789895247744,,,,,,,,,,
acc,1778673010.0,9.0,-2.089427466492584,0.8905298968056152,-9.819374695534407,,,,,,,,,,
acc,1778673010.0,9.0,-2.089928206309653,0.8961392961990692,-9.821690530514065,,,,,,,,,,
acc,1778673010.0,9.0,-2.0897144540908212,0.9006328124524626,-9.82182000086116,,,,,,,,,,
acc,1778673010.0,9.0,-2.0891476781795926,0.9054404692249448,-9.821983789447998,,,,,,,,,,
acc,1778673010.0,9.0,-2.088941018909933,0.911233849094137,-9.824240409483835,,,,,,,,,,
acc,1778673010.0,9.0,-2.088736237649274,0.9173295478267662,-9.82399173327571,,,,,,,,,,
acc,1778673010.0,9.0,-2.08785888025115,0.9219854741227863,-9.826230105653915,,,,,,,,,,
acc,1778673010.0,9.0,-2.0862795459195134,0.9265990899035633,-9.826708784260056,,,,,,,,,,
acc,1778673010.0,9.0,-2.0850695385720526,0.9315257454684863,-9.827502583916987,,,,,,,,,,
acc,1778673010.0,9.0,-2.08454497284229,0.9360526646285796,-9.828324673805543,,,,,,,,,,
acc,1778673010.0,9.0,-2.083705703181991,0.940183470974301,-9.829849233360394,,,,,,,,,,
acc,1778673010.0,9.0,-2.083548496717674,0.9446317135519811,-9.831324443845599,,,,,,,,,,
acc,1778673010.0,9.0,-2.0833927188555075,0.9497494640455182,-9.834241623355389,,,,,,,,,,
acc,1778673010.0,9.0,-2.0839482965571134,0.9548207073855983,-9.836031884040583,,,,,,,,,,
acc,1778673010.0,9.0,-2.0851732705867487,0.9587809610531823,-9.837841370601172,,,,,,,,,,
acc,1778673010.0,9.0,-2.087097052456687,0.962705226268537,-9.839598918901595,,,,,,,,,,
acc,1778673010.0,9.0,-2.0882934125847608,0.9669488044140679,-9.841375990353121,,,,,,,,,,
acc,1778673010.0,9.0,-2.0880945167484475,0.9725381945358381,-9.84136206881254,,,,,,,,,,
acc,1778673010.0,9.0,-2.0878974283574236,0.9780767916544311,-9.842058213089446,,,,,,,,,,
acc,1778673010.0,9.0,-2.0880571051225085,0.9863693194292239,-9.843067501592662,,,,,,,,,,
acc,1778673010.0,9.0,-2.088925269910692,0.993876550726928,-9.842683234846865,,,,,,,,,,
acc,1778673010.0,9.0,-2.089785545353348,1.0020254998933662,-9.844751747190049,,,,,,,,,,
acc,1778673010.0,9.0,-2.090283029185689,1.0111298055194273,-9.84335826109193,,,,,,,,,,
acc,1778673010.0,9.0,-2.0907759921965106,1.019121968038434,-9.841622473304032,,,,,,,,,,
acc,1778673010.0,9.0,-2.0912644754703127,1.0256571202534834,-9.84086086957535,,,,,,,,,,
acc,1778673010.0,9.0,-2.0906836165022304,1.0310679819372075,-9.839502741359349,,,,,,,,,,
acc,1778673010.0,9.0,-2.090817974409502,1.0395534021271073,-9.837801990288506,,,,,,,,,,
acc,1778673010.0,9.0,-2.0905961376669806,1.0462223657204501,-9.837075104433955,,,,,,,,,,
acc,1778673010.0,9.0,-2.089701882364986,1.0504169271417523,-9.837064771328452,,,,,,,,,,
acc,1778673010.0,9.0,-2.089845161435996,1.0538634421128408,-9.83467623724083,,,,,,,,,,
acc,1778673010.0,9.0,-2.0906970764746275,1.0583080452313938,-9.834368224226633,,,,,,,,,,
acc,1778673010.0,9.0,-2.091860719652101,1.0637771610247877,-9.834737453505948,,,,,,,,,,
acc,1778673010.0,9.0,-2.091629407425332,1.067457231771773,-9.832334565503217,,,,,,,,,,
acc,1778673010.0,9.0,-2.0917551706078847,1.0714588247959778,-9.83417764498367,,,,,,,,,,
acc,1778673010.0,9.0,-2.0918797909387945,1.0750690897559567,-9.83217031266185,,,,,,,,,,
acc,1778673010.0,9.0,-2.0923582430235683,1.078291582836965,-9.832595009215623,,,,,,,,,,
acc,1778673010.0,9.0,-2.091767445646052,1.0814847920796429,-9.832270414376277,,,,,,,,,,
acc,1778673010.0,9.0,-2.090507574278434,1.0846489836064683,-9.829889946372836,,,,,,,,,,
acc,1778673010.0,9.0,-2.090288558524951,1.0877844211211904,-9.829234959874777,,,,,,,,,,
acc,1778673010.0,9.0,-2.0904265061709024,1.0922757366200226,-9.827272543930047,,,,,,,,,,
acc,1778673010.0,9.0,-2.091273137343293,1.096051795622764,-9.824582529386118,,,,,,,,,,
acc,1778673010.0,9.0,-2.0910471648459996,1.100822955908308,-9.824721213327877,,,,,,,,,,
acc,1778673010.0,9.0,-2.090468281903484,1.1069351385109356,-9.823474257702692,,,,,,,,,,
acc,1778673010.0,9.0,-2.0909595601935664,1.1119623626024973,-9.822274128110568,,,,,,,,,,
acc,1778673010.0,9.0,-2.0914463740911398,1.1186832456593307,-9.823463194956176,,,,,,,,,,
acc,1778673010.0,9.0,-2.090863863645524,1.1243136481069882,-9.82261813904816,,,,,,,,,,
acc,1778673010.0,9.0,-2.0906416104174164,1.1309222912896817,-9.822064737065118,,,,,,,,,,
acc,1778673010.0,9.0,-2.0900664131305295,1.1385002946481506,-9.822545769752134,,,,,,,,,,
acc,1778673010.0,9.0,-2.088822000886728,1.1463643982160685,-9.822667467454176,,,,,,,,,,
acc,1778673010.0,9.0,-2.0875888969710803,1.1538020747692894,-9.821829642811837,,,,,,,,,,
acc,1778673010.0,9.0,-2.0867219713390917,1.160852693971388,-9.82408764804431,,,,,,,,,,
acc,1778673010.0,9.0,-2.085862923702438,1.1650349916219969,-9.82323691811929,,,,,,,,,,
acc,1778673010.0,9.0,-2.0839467735943282,1.1691792835765233,-9.825517638384785,,,,,,,,,,
acc,1778673010.0,9.0,-2.081693072533225,1.1715465739030766,-9.826002788186056,,,,,,,,,,
acc,1778673010.0,9.0,-2.0787854099065455,1.1735373794293829,-9.825773593206893,,,,,,,,,,
acc,1778673010.0,9.0,-2.077288538435925,1.1765749934708145,-9.827640794543901,,,,,,,,,,
acc,1778673010.0,9.0,-2.0754503059953344,1.178875077021444,-9.826367309863194,,,,,,,,,,
acc,1778673010.0,9.0,-2.0732738146488923,1.1807992866066568,-9.82755467428564,,,,,,,,,,
acc,1778673010.0,9.0,-2.0700876878540675,1.1851552868012023,-9.828731248816135,,,,,,,,,,
acc,1778673010.0,9.0,-2.067640450012597,1.1912110433044862,-9.829861636990174,,,,,,,,,,
acc,1778673011.0,10.0,-2.06727426902318,1.194088052359547,-9.829916853978725,,,,,,,,,,
acc,1778673011.0,10.0,-2.0662369744486595,1.1958740183252061,-9.832101367141558,,,,,,,,,,
acc,1778673011.0,10.0,-2.0638247292974645,1.1979987271201318,-9.83465649594356,,,,,,,,,,
acc,1778673011.0,10.0,-2.0614344048244675,1.2008140546331725,-9.837152911141084,,,,,,,,,,
acc,1778673011.0,10.0,-2.0593852796232746,1.2042782395743072,-9.839981613092377,,,,,,,,,,
acc,1778673011.0,10.0,-2.0584196739807195,1.2066815404602917,-9.8417197021911,,,,,,,,,,
acc,1778673011.0,10.0,-2.0571078707840167,1.2104473782864829,-9.843087033685332,,,,,,,,,,
acc,1778673011.0,10.0,-2.055807988262283,1.2159183343919624,-9.84444193990544,,,,,,,,,,
acc,1778673011.0,10.0,-2.0562592664175243,1.2213395745980293,-9.846494459990655,,,,,,,,,,
acc,1778673011.0,10.0,-2.057061406788377,1.2260371099227825,-9.847108457806275,,,,,,,,,,
acc,1778673011.0,10.0,-2.0567913596380945,1.2327507742978479,-9.847361913013186,,,,,,,,,,
acc,1778673011.0,10.0,-2.055139390617537,1.239758393061671,-9.847968028054023,,,,,,,,,,
acc,1778673011.0,10.0,-2.0538573964446223,1.2480867077156144,-9.84750373704357,,,,,,,,,,
acc,1778673011.0,10.0,-2.053296996216584,1.2574042481999212,-9.846404719039082,,,,,,,,,,
acc,1778673011.0,10.0,-2.052741688474724,1.2614190932690976,-9.84705503571451,,,,,,,,,,
acc,1778673011.0,10.0,-2.0511265199114286,1.2639775845395074,-9.84489519732711,,,,,,,,,,
acc,1778673011.0,10.0,-2.05023596370052,1.2693170624485672,-9.843855387324037,,,,,,,,,,
acc,1778673011.0,10.0,-2.0500279406079245,1.273223653064041,-9.842789522748532,,,,,,,,,,
acc,1778673011.0,10.0,-2.050531742733181,1.2795085221570517,-9.841378381034275,,,,,,,,,,
acc,1778673011.0,10.0,-2.0510309666963673,1.2864462140704596,-9.838915155897839,,,,,,,,,,
acc,1778673011.0,10.0,-2.0504962509340396,1.29261092685825,-9.837929687758178,,,,,,,,,,
acc,1778673011.0,10.0,-2.0499663942512565,1.2987196195472972,-9.836207745571915,,,,,,,,,,
acc,1778673011.0,10.0,-2.0508257183573777,1.3051277640241172,-9.834146479152157,,,,,,,,,,
acc,1778673011.0,10.0,-2.0523516738081353,1.3135719858541481,-9.833807787116594,,,,,,,,,,
acc,1778673011.0,10.0,-2.052834359626007,1.3233238480308842,-9.831803824187105,,,,,,,,,,
acc,1778673011.0,10.0,-2.0533126591746473,1.332632121108523,-9.82910813709956,,,,,,,,,,
acc,1778673011.0,10.0,-2.0541415750511725,1.34221077975594,-9.827856815417533,,,,,,,,,,
acc,1778673011.0,10.0,-2.056347332994108,1.3527672923576302,-9.824842032985192,,,,,,,,,,
acc,1778673011.0,10.0,-2.058533046751942,1.363547343965065,-9.824942863829571,,,,,,,,,,
acc,1778673011.0,10.0,-2.05966949577893,1.3721706296077814,-9.822983963927273,,,,,,,,,,
acc,1778673011.0,10.0,-2.059375748805459,1.3813899936441645,-9.821397836710977,,,,,,,,,,
acc,1778673011.0,10.0,-2.0594396338246073,1.3898511394750974,-9.81844174861936,,,,,,,,,,
acc,1778673011.0,10.0,-2.05950293830751,1.3971704910552942,-9.813808680636287,,,,,,,,,,
acc,1778673011.0,10.0,-2.0592107049078643,1.4058077044152917,-9.811631491009475,,,,,,,,,,
acc,1778673011.0,10.0,-2.0589211270922347,1.4133370272069372,-9.808409179951443,,,,,,,,,,
acc,1778673011.0,10.0,-2.0583147125787518,1.4225372662177853,-9.807310459050285,,,,,,,,,,
acc,1778673011.0,10.0,-2.0577138086752162,1.4285301901593017,-9.806257216885895,,,,,,,,,,
acc,1778673011.0,10.0,-2.0564084220064562,1.4327293186633707,-9.806917387849653,,,,,,,,,,
acc,1778673011.0,10.0,-2.054759935096662,1.4417533357367018,-9.807926531344297,,,,,,,,,,
acc,1778673011.0,10.0,-2.054191334087319,1.4468617053565829,-9.806867690961157,,,,,,,,,,
acc,1778673011.0,10.0,-2.052917956852147,1.4536629905625966,-9.80890668819301,,,,,,,,,,
acc,1778673011.0,10.0,-2.0523660942310236,1.4600475086603055,-9.808158409125854,,,,,,,,,,
acc,1778673011.0,10.0,-2.052493677046986,1.4656995697647883,-9.809156275111338,,,,,,,,,,
acc,1778673011.0,10.0,-2.0522651380130865,1.4702353729740802,-9.811884409441511,,,,,,,,,,
acc,1778673011.0,10.0,-2.0506543021422927,1.4726711452633323,-9.812457950626301,,,,,,,,,,
acc,1778673011.0,10.0,-2.048383664675061,1.4754042603396986,-9.814801110381929,,,,,,,,,,
acc,1778673011.0,10.0,-2.0475180344387676,1.4788224639663872,-9.816768014958061,,,,,,,,,,
acc,1778673011.0,10.0,-2.047334709870213,1.4808252413484682,-9.819072008331746,,,,,,,,,,
acc,1778673011.0,10.0,-2.045413715363604,1.4831647815351063,-9.821390568396723,,,,,,,,,,
acc,1778673011.0,10.0,-2.0435101772929465,1.4865124637676503,-9.821877725553943,,,,,,,,,,
acc,1778673011.0,10.0,-2.042333861817567,1.4898297249893246,-9.82378032357963,,,,,,,,,,
acc,1778673011.0,10.0,-2.04152320720995,1.4920874398256334,-9.825665632344974,,,,,,,,,,
acc,1778673011.0,10.0,-2.0410748906303784,1.496738413425116,-9.827178846589144,,,,,,,,,,
acc,1778673011.0,10.0,-2.0416600497410284,1.498933347814735,-9.831127579356796,,,,,,,,,,
acc,1778673011.0,10.0,-2.039790622098764,1.4993335065023619,-9.83333658817194,,,,,,,,,,
acc,1778673011.0,10.0,-2.0390030783959148,1.4990555895224371,-9.836199962675401,,,,,,,,,,
acc,1778673011.0,10.0,-2.0388971305785026,1.4991351603553074,-9.836907506842588,,,,,,,,,,
acc,1778673011.0,10.0,-2.038472677621815,1.5019827541996322,-9.836579219793476,,,,,,,,,,
acc,1778673011.0,10.0,-2.038052081745281,1.5089930848746196,-9.838383717074686,,,,,,,,,,
acc,1778673011.0,10.0,-2.0379547757871177,1.5162946737237728,-9.839426388464533,,,,,,,,,,
acc,1778673011.0,10.0,-2.038568287735966,1.52072567146613,-9.840495079325724,,,,,,,,,,
acc,1778673011.0,10.0,-2.037791851700427,1.5233770687721297,-9.842938431696357,,,,,,,,,,
acc,1778673011.0,10.0,-2.03631253764284,1.5256494100899212,-9.842200378496504,,,,,,,,,,
acc,1778673011.0,10.0,-2.0341722271658242,1.5279011022428157,-9.846012607253185,,,,,,,,,,
acc,1778673011.0,10.0,-2.031341432467312,1.5291029223432626,-9.847021448046116,,,,,,,,,,
acc,1778673011.0,10.0,-2.030275696693153,1.5306487926284804,-9.84873105490688,,,,,,,,,,
acc,1778673011.0,10.0,-2.0299295880951775,1.537398629281137,-9.851490031161076,,,,,,,,,,
acc,1778673011.0,10.0,-2.028521719783182,1.5427027563132751,-9.851029230619478,,,,,,,,,,
acc,1778673011.0,10.0,-2.0253873101375186,1.5458643776443701,-9.853021885857236,,,,,,,,,,
acc,1778673011.0,10.0,-2.0215714498973703,1.552120976238288,-9.851553258226264,,,,,,,,,,
acc,1778673011.0,10.0,-2.0192101320274194,1.5548420413684576,-9.851801816659975,,,,,,,,,,
acc,1778673011.0,10.0,-2.0172252340530954,1.5585677900797354,-9.852012621998496,,,,,,,,,,
acc,1778673011.0,10.0,-2.0134835440612786,1.560200870682637,-9.848068403205602,,,,,,,,,,
acc,1778673011.0,10.0,-2.0108407510738835,1.5642328849404892,-9.851472336203656,,,,,,,,,,
acc,1778673011.0,10.0,-2.0078670114177553,1.5682282596040886,-9.847852495008306,,,,,,,,,,
acc,1778673011.0,10.0,-2.0059851902239165,1.5756660059380527,-9.845685414763302,,,,,,,,,,
acc,1778673011.0,10.0,-2.004439946303779,1.5844205275537815,-9.844922399557124,,,,,,,,,,
acc,1778673011.0,10.0,-2.0015243718835483,1.5917111320653925,-9.84100710757943,,,,,,,,,,
acc,1778673011.0,10.0,-1.9993452251540578,1.6013847535287256,-9.839647660283694,,,,,,,,,,
acc,1778673011.0,10.0,-1.998570243942497,1.6106155070472006,-9.838265072114803,,,,,,,,,,
acc,1778673011.0,10.0,-1.9985122475540895,1.617668073515564,-9.835120218913614,,,,,,,,,,
acc,1778673011.0,10.0,-1.9970349115076593,1.6218878075770307,-9.835837574463604,,,,,,,,,,
acc,1778673011.0,10.0,-1.9955710002570446,1.6264241674279136,-9.832359809196314,,,,,,,,,,
acc,1778673011.0,10.0,-1.996569659473379,1.6347174410525955,-9.831682382337904,,,,,,,,,,
acc,1778673011.0,10.0,-1.9975592437100032,1.6411960180228888,-9.832111510259237,,,,,,,,,,
acc,1778673011.0,10.0,-1.9978299021425652,1.6472962553981938,-9.829768003335204,,,,,,,,,,
acc,1778673011.0,10.0,-2.0009023397808097,1.6547254310893231,-9.831989365223956,,,,,,,,,,
acc,1778673011.0,10.0,-2.0032369153254908,1.6617321254784456,-9.830356901594486,,,,,,,,,,
acc,1778673011.0,10.0,-2.0041659131713043,1.671124416362115,-9.82873927242616,,,,,,,,,,
acc,1778673011.0,10.0,-2.005086469063781,1.68075083475823,-9.828449717145471,,,,,,,,,,
acc,1778673011.0,10.0,-2.005643688556457,1.69064473841419,-9.824684115713211,,,,,,,,,,
acc,1778673011.0,10.0,-2.006195844506157,1.7011586678019535,-9.826596704296374,,,,,,,,,,
acc,1778673011.0,10.0,-2.007452916138201,1.7091277881208509,-9.826007151182909,,,,,,,,,,
acc,1778673011.0,10.0,-2.0100829365741,1.7152851576990438,-9.826487850691281,,,,,,,,,,
acc,1778673011.0,10.0,-2.0113046856008023,1.7210316031398285,-9.82692868761887,,,,,,,,,,
acc,1778673011.0,10.0,-2.012870303534049,1.7270808008517984,-9.827010556544284,,,,,,,,,,
acc,1778673011.0,10.0,-2.014741162104175,1.7355242957139103,-9.826736710384637,,,,,,,,,,
acc,1778673011.0,10.0,-2.0169499819237404,1.7445655019779898,-9.82824019015555,,,,,,,,,,
acc,1778673011.0,10.0,-2.0187837678167044,1.751785206336645,-9.829765501954364,,,,,,,,,,
acc,1778673011.0,10.0,-2.0206008898085797,1.758619836462894,-9.829111650104648,,,,,,,,,,
acc,1778673011.0,10.0,-2.0217270605790505,1.766066797980155,-9.830274071671186,,,,,,,,,,
acc,1778673011.0,10.0,-2.0231979687649653,1.7738010588967759,-9.82965110186359,,,,,,,,,,
acc,1778673011.0,10.0,-2.0253299402224894,1.7824944381206174,-9.828749819833877,,,,,,,,,,
acc,1778673011.0,10.0,-2.0277975092196514,1.7886950466881244,-9.831335395573975,,,,,,,,,,
acc,1778673011.0,10.0,-2.029532721934957,1.7951942713656384,-9.828253514469635,,,,,,,,,,
acc,1778673011.0,10.0,-2.0309326988840923,1.8016344365786734,-9.82555460089906,,,,,,,,,,
acc,1778673011.0,10.0,-2.0316100209440853,1.8080160790118176,-9.827459278878662,,,,,,,,,,
acc,1778673011.0,10.0,-2.032281188073707,1.816079064230771,-9.823063743326639,,,,,,,,,,
acc,1778673011.0,10.0,-2.033301218193139,1.822648913726858,-9.824281122977254,,,,,,,,,,
acc,1778673011.0,10.0,-2.0336020460839785,1.8291590619879385,-9.827546250522177,,,,,,,,,,
acc,1778673011.0,10.0,-2.0335451783240615,1.8335512502288103,-9.824853764111424,,,,,,,,,,
acc,1778673011.0,10.0,-2.0341987603726954,1.8379035259807381,-9.831592355279243,,,,,,,,,,
acc,1778673011.0,10.0,-2.033107060469747,1.8422162519358842,-9.830921902651355,,,,,,,,,,
acc,1778673011.0,10.0,-2.033054690716545,1.8468092550812676,-9.833132778107164,,,,,,,,,,
acc,1778673011.0,10.0,-2.0330027968552877,1.8489467486352853,-9.835643030587637,,,,,,,,,,
acc,1778673011.0,10.0,-2.0322769359266406,1.8499999234825544,-9.835645711016742,,,,,,,,,,
acc,1778673011.0,10.0,-2.0325870715948455,1.855942061173409,-9.83983696728521,,,,,,,,,,
acc,1778673011.0,10.0,-2.032894389013123,1.8579965635558875,-9.841256897192697,,,,,,,,,,
acc,1778673011.0,10.0,-2.033198913791417,1.8628011395817994,-9.841599019947996,,,,,,,,,,
acc,1778673011.0,10.0,-2.034210604293923,1.867917017647897,-9.845061738924716,,,,,,,,,,
acc,1778673011.0,10.0,-2.0334737678812598,1.8719570064066913,-9.844268888144422,,,,,,,,,,
acc,1778673011.0,10.0,-2.0327436272122696,1.877344654749695,-9.845258079098182,,,,,,,,,,
acc,1778673011.0,10.0,-2.0316651504138927,1.8844226782206903,-9.845563842533169,,,,,,,,,,
acc,1778673011.0,10.0,-2.030951444921048,1.8903714786409063,-9.844127493964423,,,,,,,,,,
acc,1778673011.0,10.0,-2.0302442249772157,1.8966211924398524,-9.844088569247202,,,,,,,,,,
acc,1778673012.0,11.0,-2.027449127171752,1.9035240471025616,-9.842310664788144,,,,,,,,,,
acc,1778673012.0,11.0,-2.023969495893991,1.9079149081040419,-9.842607717409008,,,,,,,,,,
acc,1778673012.0,11.0,-2.0229707509137764,1.9119108976819381,-9.838358499858622,,,,,,,,,,
acc,1778673012.0,11.0,-2.020951681196553,1.9169354790496624,-9.838336504433787,,,,,,,,,,
acc,1778673012.0,11.0,-2.0182410261388424,1.9246831351731937,-9.837604766869443,,,,,,,,,,
acc,1778673012.0,11.0,-2.016264936130025,1.9320054252740586,-9.83482087778089,,,,,,,,,,
acc,1778673012.0,11.0,-2.0135968702274383,1.9417104429296252,-9.837315789896177,,,,,,,,,,
acc,1778673012.0,11.0,-2.010598087523297,1.9527116410994891,-9.83457002119664,,,,,,,,,,
acc,1778673012.0,11.0,-2.0083364881096974,1.9632934022134816,-9.834262975589535,,,,,,,,,,
acc,1778673012.0,11.0,-2.0050305362877525,1.9761927680779734,-9.836798451761014,,,,,,,,,,
acc,1778673012.0,11.0,-2.0007252257093793,1.988974915496666,-9.834057384243492,,,,,,,,,,
acc,1778673012.0,11.0,-1.998553342429844,1.999546614434891,-9.835494339449678,,,,,,,,,,
acc,1778673012.0,11.0,-1.9964011953741587,2.0076084749652945,-9.834823932540148,,,,,,,,,,
acc,1778673012.0,11.0,-1.9925292628159936,2.0159520380790523,-9.83352067357828,,,,,,,,,,
acc,1778673012.0,11.0,-1.9876276203040386,2.024539258617449,-9.832193763150284,,,,,,,,,,
acc,1778673012.0,11.0,-1.984154891115511,2.0344683115693054,-9.830168977677886,,,,,,,,,,
acc,1778673012.0,11.0,-1.981423651997373,2.04256779541133,-9.831321790729133,,,,,,,,,,
acc,1778673012.0,11.0,-1.9776878225788104,2.0516230784392926,-9.82965989999394,,,,,,,,,,
acc,1778673012.0,11.0,-1.9732760174150197,2.0605960747834104,-9.83081733909194,,,,,,,,,,
acc,1778673012.0,11.0,-1.9675199316263998,2.0666833042239996,-9.82884055579787,,,,,,,,,,
acc,1778673012.0,11.0,-1.9628455525969297,2.073780112857362,-9.82890505127071,,,,,,,,,,
acc,1778673012.0,11.0,-1.9592785450633325,2.081167402722413,-9.827620083705938,,,,,,,,,,
acc,1778673012.0,11.0,-1.9543240857562718,2.0877776303608035,-9.827021231304137,,,,,,,,,,
acc,1778673012.0,11.0,-1.9501245902721693,2.0960671230878822,-9.825433914782778,,,,,,,,,,
acc,1778673012.0,11.0,-1.9477025893966864,2.1032518876439052,-9.823470557105052,,,,,,,,,,
acc,1778673012.0,11.0,-1.946367492303584,2.112465667332492,-9.824684239585583,,,,,,,,,,
acc,1778673012.0,11.0,-1.9457189658928562,2.1226251203987774,-9.823082665290713,,,,,,,,,,
acc,1778673012.0,11.0,-1.945076332735791,2.1278292063579185,-9.823909407259487,,,,,,,,,,
acc,1778673012.0,11.0,-1.9444395392794496,2.1312466688866167,-9.824728636504057,,,,,,,,,,
acc,1778673012.0,11.0,-1.9448734362315754,2.1370468480270617,-9.82447552660685,,,,,,,,,,
acc,1778673012.0,11.0,-1.9466877524769446,2.1431492910518055,-9.824615182077034,,,,,,,,,,
acc,1778673012.0,11.0,-1.9481306199048585,2.1488413093435197,-9.824008132208087,,,,,,,,,,
acc,1778673012.0,11.0,-1.9481760045358607,2.155191536252615,-9.822057730892896,,,,,,,,,,
acc,1778673012.0,11.0,-1.9499603098559963,2.16183902867981,-9.820125053156145,,,,,,,,,,
acc,1778673012.0,11.0,-1.9524028393718422,2.1701654474822054,-9.817535499505246,,,,,,,,,,
acc,1778673012.0,11.0,-1.954503705781143,2.177031831682694,-9.81496947750175,,,,,,,,,,
acc,1778673012.0,11.0,-1.9562305103721631,2.1824159544648016,-9.813136706107842,,,,,,,,,,
acc,1778673012.0,11.0,-1.958296594182351,2.1894904931112102,-9.810610656576433,,,,,,,,,,
acc,1778673012.0,11.0,-1.9610183325288897,2.194086963827115,-9.81052133311354,,,,,,,,,,
acc,1778673012.0,11.0,-1.9633603761968366,2.197931742050891,-9.809083953589843,,,,,,,,,,
acc,1778673012.0,11.0,-1.9660360992272417,2.2013866112859786,-9.807659635740317,,,,,,,,,,
acc,1778673012.0,11.0,-1.9676581073139483,2.203780685363987,-9.80862652888139,,,,,,,,,,
acc,1778673012.0,11.0,-1.9692653759805594,2.206827433474061,-9.806851396790965,,,,,,,,,,
acc,1778673012.0,11.0,-1.9712130100991794,2.21194079931518,-9.805766833991392,,,,,,,,,,
acc,1778673012.0,11.0,-1.9734624132649223,2.214238965987058,-9.805721527022245,,,,,,,,,,
acc,1778673012.0,11.0,-1.9750169373759492,2.2158063161163897,-9.804292269671787,,,,,,,,,,
acc,1778673012.0,11.0,-1.9769123062329383,2.2204831277015913,-9.807419569919109,,,,,,,,,,
acc,1778673012.0,11.0,-1.9784354806746174,2.227566706209801,-9.809134080772516,,,,,,,,,,
acc,1778673012.0,11.0,-1.9799448138126068,2.238064581236809,-9.80976810792881,,,,,,,,,,
acc,1778673012.0,11.0,-1.9814404314249494,2.249531964263671,-9.812135706588192,,,,,,,,,,
acc,1778673012.0,11.0,-1.9811831251541032,2.2629539420085805,-9.815866161696547,,,,,,,,,,
acc,1778673012.0,11.0,-1.9812831279849297,2.2731302481902556,-9.817503917170958,,,,,,,,,,
acc,1778673012.0,11.0,-1.9817016895443935,2.2804453476214492,-9.820546655640914,,,,,,,,,,
acc,1778673012.0,11.0,-1.9810870382664114,2.2845347752181726,-9.823526249947262,,,,,,,,,,
acc,1778673012.0,11.0,-1.981187914251228,2.2872026704661836,-9.825094397117924,,,,,,,,,,
acc,1778673012.0,11.0,-1.9802229698932017,2.2898463221706837,-9.828068159812052,,,,,,,,,,
acc,1778673012.0,11.0,-1.9789118322913664,2.2938503217664215,-9.831973301896113,,,,,,,,,,
acc,1778673012.0,11.0,-1.9786775037582114,2.2981728982783864,-9.833819651345754,,,,,,,,,,
acc,1778673012.0,11.0,-1.9794747048083217,2.3049054606179924,-9.840441271047759,,,,,,,,,,
acc,1778673012.0,11.0,-1.9795902322900751,2.311931814122773,-9.844269480368071,,,,,,,,,,
acc,1778673012.0,11.0,-1.9789947681302875,2.3192492890702807,-9.84912779677351,,,,,,,,,,
acc,1778673012.0,11.0,-1.9773753148395832,2.327174698371387,-9.85596527100032,,,,,,,,,,
acc,1778673012.0,11.0,-1.9764450161213394,2.3332887554239865,-9.859297440632373,,,,,,,,,,
acc,1778673012.0,11.0,-1.9755231711592751,2.342470957204698,-9.864729128569618,,,,,,,,,,
acc,1778673012.0,11.0,-1.9753196358651879,2.352279651750649,-9.866952259602714,,,,,,,,,,
acc,1778673012.0,11.0,-1.9751179501251095,2.362709146032314,-9.870184588917168,,,,,,,,,,
acc,1778673012.0,11.0,-1.973853202582213,2.374428237117798,-9.869518414497861,,,,,,,,,,
acc,1778673012.0,11.0,-1.9694762439797338,2.3853309024393106,-9.862291418245752,,,,,,,,,,
acc,1778673012.0,11.0,-1.9658489830566317,2.394750122614615,-9.856904921999426,,,,,,,,,,
acc,1778673012.0,11.0,-1.9643489873725686,2.4033738162824902,-9.861293456464148,,,,,,,,,,
acc,1778673012.0,11.0,-1.9646019643455765,2.412629077951077,-9.87849188942398,,,,,,,,,,
acc,1778673012.0,11.0,-1.9610189967030642,2.4193509701371583,-9.878105196323327,,,,,,,,,,
acc,1778673012.0,11.0,-1.956758664360907,2.426366741357023,-9.877722017157406,,,,,,,,,,
acc,1778673012.0,11.0,-1.9535664464277367,2.4326443300087344,-9.877342319994575,,,,,,,,,,
acc,1778673012.0,11.0,-1.9507581984430737,2.4377999697104493,-9.875617196489518,,,,,,,,,,
acc,1778673012.0,11.0,-1.9469460692391725,2.445003063167525,-9.874298214689437,,,,,,,,,,
acc,1778673012.0,11.0,-1.9424586486770097,2.4514307683873366,-9.870506449623603,,,,,,,,,,
acc,1778673012.0,11.0,-1.9376570350376168,2.454676360214414,-9.865719740700516,,,,,,,,,,
acc,1778673012.0,11.0,-1.933254025235442,2.4533843839106946,-9.864135727563184,,,,,,,,,,
acc,1778673012.0,11.0,-1.92821658785733,2.448625482247839,-9.860400816085955,,,,,,,,,,
acc,1778673012.0,11.0,-1.92216003186316,2.443909825393308,-9.858474680586449,,,,,,,,,,
acc,1778673012.0,11.0,-1.9165134744537935,2.442005753385443,-9.85518167710218,,,,,,,,,,
acc,1778673012.0,11.0,-1.9119476282548884,2.446401886113047,-9.852983492116735,,,,,,,,,,
acc,1778673012.0,11.0,-1.9088431379485165,2.4517874707136165,-9.848001054983351,,,,,,,,,,
acc,1778673012.0,11.0,-1.9064412969202384,2.4567691539434366,-9.846897521460606,,,,,,,,,,
acc,1778673012.0,11.0,-1.9037063199514488,2.460321196879969,-9.84370972124915,,,,,,,,,,
acc,1778673012.0,11.0,-1.9024160615016252,2.4641959327975846,-9.843284127647852,,,,,,,,,,
acc,1778673012.0,11.0,-1.9007825569183734,2.471159162320547,-9.843607828537055,,,,,,,,,,
acc,1778673012.0,11.0,-1.9001933054469071,2.4811828198695696,-9.842579720329308,,,,,,,,,,
acc,1778673012.0,11.0,-1.9010292739787469,2.492854723872,-9.843229289705882,,,,,,,,,,
acc,1778673012.0,11.0,-1.9015026750562714,2.5040655927565325,-9.842808061855333,,,,,,,,,,
acc,1778673012.0,11.0,-1.8998774705526085,2.5124058539421927,-9.841396755989551,,,,,,,,,,
acc,1778673012.0,11.0,-1.8972021400138905,2.5213802586998013,-9.841347151517999,,,,,,,,,,
acc,1778673012.0,11.0,-1.893876682249108,2.526084504359432,-9.839274682821898,,,,,,,,,,
acc,1778673012.0,11.0,-1.890226481582462,2.533195276479401,-9.838569923595042,,,,,,,,,,
acc,1778673012.0,11.0,-1.887638850928348,2.5461338688005926,-9.837232624649435,,,,,,,,,,
acc,1778673012.0,11.0,-1.8847552579105133,2.5554762206923196,-9.83761131637955,,,,,,,,,,
acc,1778673012.0,11.0,-1.8808329740173704,2.5643787064388426,-9.836602195871901,,,,,,,,,,
acc,1778673012.0,11.0,-1.87730130335316,2.573910226740009,-9.837696549081384,,,,,,,,,,
acc,1778673012.0,11.0,-1.8751860873959156,2.5861593691655225,-9.836970627129485,,,,,,,,,,
acc,1778673012.0,11.0,-1.874509958071493,2.600710973051632,-9.838416603236285,,,,,,,,,,
acc,1778673012.0,11.0,-1.8734850110302104,2.6130360407913003,-9.838749041624203,,,,,,,,,,
acc,1778673012.0,11.0,-1.871049512459506,2.623864747002821,-9.838758991662445,,,,,,,,,,
acc,1778673012.0,11.0,-1.8693460782865279,2.6356599457292864,-9.839088318718531,,,,,,,,,,
acc,1778673012.0,11.0,-1.8659187906599937,2.6459280944761256,-9.840124585815083,,,,,,,,,,
acc,1778673012.0,11.0,-1.8621676763904582,2.653689164008925,-9.838418197659713,,,,,,,,,,
acc,1778673012.0,11.0,-1.8574212489057587,2.663119040413765,-9.838431154122768,,,,,,,,,,
acc,1778673012.0,11.0,-1.8513335818739611,2.672463226216686,-9.83805352760348,,,,,,,,,,
acc,1778673012.0,11.0,-1.845975672637164,2.6796282055155496,-9.834910599728211,,,,,,,,,,
acc,1778673012.0,11.0,-1.8424057842559223,2.6828944301045063,-9.83602032469092,,,,,,,,,,
acc,1778673012.0,11.0,-1.8371290031623435,2.686840915819045,-9.832895872818618,,,,,,,,,,
acc,1778673012.0,11.0,-1.830870772805802,2.692490872051706,-9.832568546167467,,,,,,,,,,
acc,1778673012.0,11.0,-1.8236045083043066,2.696350153563202,-9.831924726547252,,,,,,,,,,
acc,1778673012.0,11.0,-1.817469176915206,2.698080061585423,-9.82812755019003,,,,,,,,,,
acc,1778673012.0,11.0,-1.8124189982415082,2.7008236497973224,-9.824719850183412,,,,,,,,,,
acc,1778673012.0,11.0,-1.8060303402608178,2.7042522393139485,-9.823827876232265,,,,,,,,,,
acc,1778673012.0,11.0,-1.800054707784035,2.70693974008835,-9.819784809653676,,,,,,,,,,
acc,1778673012.0,11.0,-1.7958727094842373,2.706124153623053,-9.820286557718738,,,,,,,,,,
acc,1778673012.0,11.0,-1.791728713584861,2.70428656931758,-9.820073813658624,,,,,,,,,,
acc,1778673012.0,11.0,-1.7865574712040801,2.7052344253530194,-9.818159164425298,,,,,,,,,,
acc,1778673012.0,11.0,-1.7814332206220616,2.7040793644423706,-9.819740588499396,,,,,,,,,,
acc,1778673012.0,11.0,-1.7767105056956067,2.703644732399583,-9.81857439436301,,,,,,,,,,
acc,1778673012.0,11.0,-1.7723856685268082,2.7077221246329026,-9.81773826502375,,,,,,,,,,
acc,1778673012.0,11.0,-1.7670707316584864,2.7166609958983434,-9.814460468276952,,,,,,,,,,
acc,1778673012.0,11.0,-1.7614491305703315,2.7244537439414183,-9.809153657134358,,,,,,,,,,
acc,1778673012.0,11.0,-1.7555236428757621,2.7276676034973324,-9.808722611852897,,,,,,,,,,
acc,1778673012.0,11.0,-1.7503619335768954,2.731207229141341,-9.806911112569876,,,,,,,,,,
acc,1778673013.0,12.0,-1.746276529540166,2.7371284516897227,-9.803376741874693,,,,,,,,,,
acc,1778673013.0,12.0,-1.742583221013237,2.748568845498616,-9.80335315400979,,,,,,,,,,
acc,1778673013.0,12.0,-1.737184141338744,2.761999573403655,-9.800561047644972,,,,,,,,,,
acc,1778673013.0,12.0,-1.7318341238509554,2.7721845506999587,-9.800918017257706,,,,,,,,,,
acc,1778673013.0,12.0,-1.7282720554672892,2.7780883775257115,-9.799887372073478,,,,,,,,,,
acc,1778673013.0,12.0,-1.7254167853074467,2.782554184494043,-9.80060542525626,,,,,,,,,,
acc,1778673013.0,12.0,-1.722587461383848,2.7866244482672298,-9.80163642081618,,,,,,,,,,
acc,1778673013.0,12.0,-1.7187544478321377,2.7923970577373045,-9.80162864748912,,,,,,,,,,
acc,1778673013.0,12.0,-1.7146013036195473,2.797407278043223,-9.803715248420822,,,,,,,,,,
acc,1778673013.0,12.0,-1.7108408613912607,2.801697531482924,-9.80439851716076,,,,,,,,,,
acc,1778673013.0,12.0,-1.7071145908231524,2.8028250950907236,-9.804010682496529,,,,,,,,,,
acc,1778673013.0,12.0,-1.7027122487330644,2.8049718124560763,-9.803981333925853,,,,,,,,,,
acc,1778673013.0,12.0,-1.6973205112522998,2.810577696875748,-9.804271728561618,,,,,,,,,,
acc,1778673013.0,12.0,-1.6905933982816994,2.8178719725880383,-9.803849542595362,,,,,,,,,,
acc,1778673013.0,12.0,-1.6853117864744867,2.8271942678188116,-9.805596494514127,,,,,,,,,,
acc,1778673013.0,12.0,-1.6797231985335606,2.8305039100970304,-9.80661763898094,,,,,,,,,,
acc,1778673013.0,12.0,-1.6738304330808647,2.83030481172013,-9.807984465951494,,,,,,,,,,
acc,1778673013.0,12.0,-1.6683461777894204,2.8339411589246675,-9.809338872375925,,,,,,,,,,
acc,1778673013.0,12.0,-1.6636217004293952,2.8365150620581954,-9.811390903777896,,,,,,,,,,
acc,1778673013.0,12.0,-1.6585851841782264,2.8362613395142504,-9.812359393645721,,,,,,,,,,
acc,1778673013.0,12.0,-1.6535944354480547,2.837394293532451,-9.815448880678776,,,,,,,,,,
acc,1778673013.0,12.0,-1.6476196382647088,2.8371325812910593,-9.815635068133277,,,,,,,,,,
acc,1778673013.0,12.0,-1.6388948986326073,2.839677483523463,-9.817984856002068,,,,,,,,,,
acc,1778673013.0,12.0,-1.631633812865978,2.842518727299516,-9.8181479986987,,,,,,,,,,
acc,1778673013.0,12.0,-1.625148642245418,2.843949781352614,-9.820084485986719,,,,,,,,,,
acc,1778673013.0,12.0,-1.618722403268351,2.8484915348957736,-9.822393841377924,,,,,,,,,,
acc,1778673013.0,12.0,-1.6119995895444268,2.8537019495489826,-9.822161948145663,,,,,,,,,,
acc,1778673013.0,12.0,-1.6049829051766575,2.8581550837898217,-9.823706998335435,,,,,,,,,,
acc,1778673013.0,12.0,-1.5970005732293815,2.8646620553805158,-9.823143704843051,,,,,,,,,,
acc,1778673013.0,12.0,-1.5894457487072104,2.875298495324878,-9.822904997498375,,,,,,,,,,
acc,1778673013.0,12.0,-1.5823145467907316,2.883389015089596,-9.8240883246244,,,,,,,,,,
acc,1778673013.0,12.0,-1.574538205354206,2.8914060151814818,-9.8242314986199,,,,,,,,,,
acc,1778673013.0,12.0,-1.5668325286084657,2.8979657927421316,-9.826112704297548,,,,,,,,,,
acc,1778673013.0,12.0,-1.558167474341354,2.901342257031753,-9.825492046376645,,,,,,,,,,
acc,1778673013.0,12.0,-1.5495811606212972,2.9074567808046567,-9.825622464558778,,,,,,,,,,
acc,1778673013.0,12.0,-1.5417473102116506,2.912131370113938,-9.824722288454357,,,,,,,,,,
acc,1778673013.0,12.0,-1.5346945797345573,2.9150241480624173,-9.825534130735068,,,,,,,,,,
acc,1778673013.0,12.0,-1.527705938394908,2.918920039008021,-9.824954233840819,,,,,,,,,,
acc,1778673013.0,12.0,-1.5204258329374172,2.923135489234943,-9.828532710278019,,,,,,,,,,
acc,1778673013.0,12.0,-1.5118275209543628,2.9276676039508356,-9.827286620950467,,,,,,,,,,
acc,1778673013.0,12.0,-1.502597410372409,2.928679860189832,-9.828785102522989,,,,,,,,,,
acc,1778673013.0,12.0,-1.4934511750817083,2.9328066215708355,-9.827146263531812,,,,,,,,,,
acc,1778673013.0,12.0,-1.485097985544264,2.93796078601681,-9.825877278677824,,,,,,,,,,
acc,1778673013.0,12.0,-1.476110769946898,2.9409738102738276,-9.826678625400891,,,,,,,,,,
acc,1778673013.0,12.0,-1.467205222420198,2.94605375834609,-9.823639062963705,,,,,,,,,,
acc,1778673013.0,12.0,-1.4604748953303814,2.951087544227938,-9.823750825100461,,,,,,,,,,
acc,1778673013.0,12.0,-1.4524213658060312,2.9536263220397094,-9.826026863942168,,,,,,,,,,
acc,1778673013.0,12.0,-1.443021154523269,2.954047726045534,-9.825158516456602,,,,,,,,,,
acc,1778673013.0,12.0,-1.4368655622669293,2.9593283370548575,-9.824901500242795,,,,,,,,,,
acc,1778673013.0,12.0,-1.431440345014359,2.961792229643423,-9.827877015385267,,,,,,,,,,
acc,1778673013.0,12.0,-1.425744960041583,2.961784467140876,-9.826601390091946,,,,,,,,,,
acc,1778673013.0,12.0,-1.422160129949739,2.9631966404698167,-9.82672172751397,,,,,,,,,,
acc,1778673013.0,12.0,-1.4179334374187624,2.963886039451387,-9.829645207636915,,,,,,,,,,
acc,1778673013.0,12.0,-1.4130352207809953,2.9635397737044755,-9.828389008898533,,,,,,,,,,
acc,1778673013.0,12.0,-1.4085364857809601,2.9656104255173674,-9.82778316933628,,,,,,,,,,
acc,1778673013.0,12.0,-1.4033686987619902,2.9694015937406375,-9.826898862063665,,,,,,,,,,
acc,1778673013.0,12.0,-1.3975734338528567,2.9780568508900114,-9.826661525450518,,,,,,,,,,
acc,1778673013.0,12.0,-1.3928602313799903,2.9890472275150337,-9.825041983705557,,,,,,,,,,
acc,1778673013.0,12.0,-1.3892547619398237,2.995749125921603,-9.827625757020927,,,,,,,,,,
acc,1778673013.0,12.0,-1.3853270850325956,3.003455026762128,-9.829476118586685,,,,,,,,,,
acc,1778673013.0,12.0,-1.3814350994679092,3.0138596448741857,-9.830635227377343,,,,,,,,,,
acc,1778673013.0,12.0,-1.376513586490801,3.024169714784463,-9.832493735830564,,,,,,,,,,
acc,1778673013.0,12.0,-1.3709623576981702,3.035450990088099,-9.832879996112295,,,,,,,,,,
acc,1778673013.0,12.0,-1.366136011971642,3.046274780019638,-9.832907784615143,,,,,,,,,,
acc,1778673013.0,12.0,-1.3613535239152021,3.054231479910606,-9.834390680247797,,,,,,,,,,
acc,1778673013.0,12.0,-1.354555685778366,3.0621158761709757,-9.834049770090338,,,,,,,,,,
acc,1778673013.0,12.0,-1.3484940588182592,3.0702480932515925,-9.834421890473891,,,,,,,,,,
acc,1778673013.0,12.0,-1.3418130764164744,3.077631973469985,-9.834116191065345,,,,,,,,,,
acc,1778673013.0,12.0,-1.335512281528882,3.083209422645811,-9.837291944083816,,,,,,,,,,
acc,1778673013.0,12.0,-1.3278843719089815,3.089055656188461,-9.837634602385165,,,,,,,,,,
acc,1778673013.0,12.0,-1.3203257781568405,3.095913667707419,-9.838329108680998,,,,,,,,,,
acc,1778673013.0,12.0,-1.3128358703895537,3.1037387595888632,-9.83972724563191,,,,,,,,,,
acc,1778673013.0,12.0,-1.3050590535832962,3.110463343720558,-9.83969281223461,,,,,,,,,,
acc,1778673013.0,12.0,-1.2969979440072776,3.11467755528416,-9.841114051383109,,,,,,,,,,
acc,1778673013.0,12.0,-1.2883356485648818,3.122332137128181,-9.842486881174976,,,,,,,,,,
acc,1778673013.0,12.0,-1.2801070303741522,3.1306270933724085,-9.842427370589194,,,,,,,,,,
acc,1778673013.0,12.0,-1.2702138540720274,3.137462301281146,-9.845243625711747,,,,,,,,,,
acc,1778673013.0,12.0,-1.2607300458452817,3.1404017695345607,-9.84384568200608,,,,,,,,,,
acc,1778673013.0,12.0,-1.2506579890986382,3.1422496229284707,-9.846258583511613,,,,,,,,,,
acc,1778673013.0,12.0,-1.2424167912211646,3.14582001732315,-9.84520638760934,,,,,,,,,,
acc,1778673013.0,12.0,-1.233895520469002,3.1444949307305996,-9.84725195333044,,,,,,,,,,
acc,1778673013.0,12.0,-1.2258066454569996,3.147725454285825,-9.84402543825654,,,,,,,,,,
acc,1778673013.0,12.0,-1.219175646090062,3.152985421742997,-9.847111144571171,,,,,,,,,,
acc,1778673013.0,12.0,-1.21122053260788,3.152660125638631,-9.845696230465839,,,,,,,,,,
acc,1778673013.0,12.0,-1.2012434047775988,3.1551065183001072,-9.845998012217944,,,,,,,,,,
acc,1778673013.0,12.0,-1.1920668731250679,3.1571757093900668,-9.84423825152345,,,,,,,,,,
acc,1778673013.0,12.0,-1.181908835464558,3.1571318029810382,-9.841429578512878,,,,,,,,,,
acc,1778673013.0,12.0,-1.1711686670135562,3.1595375608930882,-9.839711331805564,,,,,,,,,,
acc,1778673013.0,12.0,-1.1601711341783956,3.1646901901045137,-9.836198368538696,,,,,,,,,,
acc,1778673013.0,12.0,-1.1499479666340282,3.1733101655039477,-9.834882620334296,,,,,,,,,,
acc,1778673013.0,12.0,-1.1401726692869911,3.183910619197464,-9.833898295931565,,,,,,,,,,
acc,1778673013.0,12.0,-1.1301312305518652,3.193740306826287,-9.831893516164364,,,,,,,,,,
acc,1778673013.0,12.0,-1.1191516396997,3.2010314053921496,-9.82955199233111,,,,,,,,,,
acc,1778673013.0,12.0,-1.1082718219040912,3.208966181379345,-9.828935584583208,,,,,,,,,,
acc,1778673013.0,12.0,-1.0974908705134676,3.21611892032308,-9.82516557115594,,,,,,,,,,
acc,1778673013.0,12.0,-1.086097954475625,3.2228516904781483,-9.824553519974492,,,,,,,,,,
acc,1778673013.0,12.0,-1.0744891000212322,3.227109508048232,-9.826822264591483,,,,,,,,,,
acc,1778673013.0,12.0,-1.063660166020354,3.2323580433851626,-9.825911185752968,,,,,,,,,,
acc,1778673013.0,12.0,-1.0539945395386185,3.2392982172519056,-9.826002300795544,,,,,,,,,,
acc,1778673013.0,12.0,-1.0444167459377407,3.2461753248015794,-9.826447549639152,,,,,,,,,,
acc,1778673013.0,12.0,-1.0335061217901367,3.250540664706545,-9.82582384894301,,,,,,,,,,
acc,1778673013.0,12.0,-1.0220202057100334,3.251742632554482,-9.826306213763235,,,,,,,,,,
acc,1778673013.0,12.0,-1.0123780055138094,3.2515493161244375,-9.826038768268818,,,,,,,,,,
acc,1778673013.0,12.0,-1.0034978545118864,3.2538070217193766,-9.826128723951436,,,,,,,,,,
acc,1778673013.0,12.0,-0.9943789312510377,3.251855604120521,-9.826217862194362,,,,,,,,,,
acc,1778673013.0,12.0,-0.983923007626121,3.250951328463776,-9.828081017478679,,,,,,,,,,
acc,1778673013.0,12.0,-0.9735620984209458,3.249380831806251,-9.825774138350559,,,,,,,,,,
acc,1778673013.0,12.0,-0.9632953402263459,3.245375341137631,-9.82835125845257,,,,,,,,,,
acc,1778673013.0,12.0,-0.9517375065625225,3.242471143328952,-9.827461788884696,,,,,,,,,,
acc,1778673013.0,12.0,-0.9420240332187607,3.237818509314101,-9.82966860221052,,,,,,,,,,
acc,1778673013.0,12.0,-0.9327537984092027,3.2328886779234978,-9.831180932728458,,,,,,,,,,
acc,1778673013.0,12.0,-0.9235678035014862,3.232866689976853,-9.831614616989732,,,,,,,,,,
acc,1778673013.0,12.0,-0.9141103121333948,3.2387728325499667,-9.833819196440993,,,,,,,,,,
acc,1778673013.0,12.0,-0.9058036657937714,3.241821078086642,-9.831424670244617,,,,,,,,,,
acc,1778673013.0,12.0,-0.8993118357856912,3.2441671855180942,-9.833276004905157,,,,,,,,,,
acc,1778673013.0,12.0,-0.8918141035187136,3.244752640856995,-9.83195131826588,,,,,,,,,,
acc,1778673013.0,12.0,-0.8830001332630832,3.2470721087732315,-9.830283707461408,,,,,,,,,,
acc,1778673013.0,12.0,-0.8756506276855116,3.2584221427670315,-9.826181976050842,,,,,,,,,,
acc,1778673013.0,12.0,-0.8662736045255304,3.266864801246889,-9.826625592159713,,,,,,,,,,
acc,1778673013.0,12.0,-0.8542130498376234,3.274201340072628,-9.822237635132485,,,,,,,,,,
acc,1778673013.0,12.0,-0.8432915002124285,3.283884981726179,-9.818918952128218,,,,,,,,,,
acc,1778673013.0,12.0,-0.8321497287991315,3.289327514048857,-9.819783530111046,,,,,,,,,,
acc,1778673013.0,12.0,-0.8211092041985087,3.293300724055361,-9.816451653537682,,,,,,,,,,
acc,1778673013.0,12.0,-0.8111984064190975,3.298657694229465,-9.82046235580668,,,,,,,,,,
acc,1778673013.0,12.0,-0.8020876020624635,3.303611023102135,-9.81751477587354,,,,,,,,,,
acc,1778673013.0,12.0,-0.7923496562036514,3.307454436893232,-9.81984748252072,,,,,,,,,,
acc,1778673013.0,12.0,-0.7827002004010999,3.309878563226401,-9.819638728407474,,,,,,,,,,
acc,1778673013.0,12.0,-0.7738483631705214,3.314019993878495,-9.817408565527758,,,,,,,,,,
acc,1778673014.0,13.0,-0.7647219929428454,3.3167394198654656,-9.82045216995944,,,,,,,,,,
acc,1778673014.0,13.0,-0.7563529935762122,3.320144066690637,-9.81544587339691,,,,,,,,,,
acc,1778673014.0,13.0,-0.747740577045479,3.3228078423839444,-9.81850731308189,,,,,,,,,,
acc,1778673014.0,13.0,-0.7392064227307726,3.3250924502055312,-9.815896966307713,,,,,,,,,,
acc,1778673014.0,13.0,-0.7324891521409196,3.3270013266189986,-9.815759605439634,,,,,,,,,,
acc,1778673014.0,13.0,-0.725477960539894,3.324384782294239,-9.815942969290587,,,,,,,,,,
acc,1778673014.0,13.0,-0.7178205388793856,3.3235313566436493,-9.814101352058994,,,,,,,,,,
acc,1778673014.0,13.0,-0.7095582720753663,3.326874284202264,-9.818523877059564,,,,,,,,,,
acc,1778673014.0,13.0,-0.7027554565416376,3.3287669688442287,-9.815558417992419,,,,,,,,,,
acc,1778673014.0,13.0,-0.6966888883195681,3.331707357898423,-9.819222275436948,,,,,,,,,,
acc,1778673014.0,13.0,-0.6910324187008072,3.3276636873942165,-9.815895499066109,,,,,,,,,,
acc,1778673014.0,13.0,-0.6843979501498978,3.3246861623322386,-9.819556293408017,,,,,,,,,,
acc,1778673014.0,13.0,-0.6792081317546746,3.3228005979490343,-9.818391774039597,,,,,,,,,,
acc,1778673014.0,13.0,-0.6747754065907845,3.321961568000193,-9.81507254454998,,,,,,,,,,
acc,1778673014.0,13.0,-0.6696730295749748,3.323224465981102,-9.815972075366968,,,,,,,,,,
acc,1778673014.0,13.0,-0.6646170185622354,3.3255052878848708,-9.816189002834337,,,,,,,,,,
acc,1778673014.0,13.0,-0.66099132313078,3.324641680046177,-9.816723426466448,,,,,,,,,,
acc,1778673014.0,13.0,-0.6581085075295479,3.3251702817561832,-9.81689803194283,,,,,,,,,,
acc,1778673014.0,13.0,-0.6545419558347598,3.3274334217635895,-9.817426012529708,,,,,,,,,,
acc,1778673014.0,13.0,-0.6499784138360737,3.3293210254442567,-9.818304157058735,,,,,,,,,,
acc,1778673014.0,13.0,-0.644746408736272,3.332930808896825,-9.816796054251853,,,,,,,,,,
acc,1778673014.0,13.0,-0.6392069767261568,3.337217731472947,-9.81455621969977,,,,,,,,,,
acc,1778673014.0,13.0,-0.6351377475700575,3.342530592603374,-9.813046680556056,,,,,,,,,,
acc,1778673014.0,13.0,-0.6300406016495975,3.344281006212728,-9.809811517029026,,,,,,,,,,
acc,1778673014.0,13.0,-0.6243153359205187,3.3453410843836253,-9.80834509365217,,,,,,,,,,
acc,1778673014.0,13.0,-0.6207008965705824,3.3467464912525045,-9.80309385399267,,,,,,,,,,
acc,1778673014.0,13.0,-0.6178292438520622,3.350197927096001,-9.803782769405748,,,,,,,,,,
acc,1778673014.0,13.0,-0.61288938268994,3.35539283539961,-9.80095126481746,,,,,,,,,,
acc,1778673014.0,13.0,-0.6104436760486076,3.359120671584057,-9.799600850133137,,,,,,,,,,
acc,1778673014.0,13.0,-0.6104694592021612,3.3586615287599306,-9.79961157431753,,,,,,,,,,
acc,1778673014.0,13.0,-0.610814484562086,3.3595909291414023,-9.797918362723983,,,,,,,,,,
acc,1778673014.0,13.0,-0.6101269654918845,3.3601569130721263,-9.79829934676463,,,,,,,,,,
acc,1778673014.0,13.0,-0.6083807995922408,3.36174715387885,-9.798641374390806,,,,,,,,,,
acc,1778673014.0,13.0,-0.6070054631169712,3.3612641438484294,-9.79550161950654,,,,,,,,,,
acc,1778673014.0,13.0,-0.6046132244638708,3.3621698939079576,-9.797288935736882,,,,,,,,,,
acc,1778673014.0,13.0,-0.6015327917774098,3.363067413291904,-9.795616830280391,,,,,,,,,,
acc,1778673014.0,13.0,-0.5984803514071796,3.35909373142456,-9.795308796027706,,,,,,,,,,
acc,1778673014.0,13.0,-0.5951006781218039,3.3551561589518175,-9.796742893610002,,,,,,,,,,
acc,1778673014.0,13.0,-0.593491058165559,3.3567918422996197,-9.796140653610562,,,,,,,,,,
acc,1778673014.0,13.0,-0.5922510268217913,3.3549339965971825,-9.797567191988318,,,,,,,,,,
acc,1778673014.0,13.0,-0.5889279602673003,3.3517086624836745,-9.795537596205111,,,,,,,,,,
acc,1778673014.0,13.0,-0.5846056908268189,3.351316873607351,-9.795585243737587,,,,,,,,,,
acc,1778673014.0,13.0,-0.5806776693054917,3.3536973777050374,-9.796306896565792,,,,,,,,,,
acc,1778673014.0,13.0,-0.5774597714451446,3.355701288059908,-9.795673115084533,,,,,,,,,,
acc,1778673014.0,13.0,-0.5749810567884698,3.3590713504289007,-9.796784434634885,,,,,,,,,,
acc,1778673014.0,13.0,-0.5735542666028103,3.361736359388653,-9.799305520742042,,,,,,,,,,
acc,1778673014.0,13.0,-0.571466003580804,3.3626378183601227,-9.801413232171221,,,,,,,,,,
acc,1778673014.0,13.0,-0.5686867842572837,3.363886047423802,-9.80105252521633,,,,,,,,,,
acc,1778673014.0,13.0,-0.5655778492214328,3.367181733756707,-9.798991257730604,,,,,,,,,,
acc,1778673014.0,13.0,-0.5628521363677368,3.3722223078655458,-9.801492290132012,,,,,,,,,,
acc,1778673014.0,13.0,-0.5597962215810653,3.372673508717675,-9.797332722896387,,,,,,,,,,
acc,1778673014.0,13.0,-0.5574780180353789,3.375889342179191,-9.799138893996915,,,,,,,,,,
acc,1778673014.0,13.0,-0.5548259094635136,3.379430923780183,-9.801248119585876,,,,,,,,,,
acc,1778673014.0,13.0,-0.5521979009675942,3.379816618946613,-9.802983216577339,,,,,,,,,,
acc,1778673014.0,13.0,-0.5506586679560362,3.3826480745673497,-9.80367313736712,,,,,,,,,,
acc,1778673014.0,13.0,-0.549133422166896,3.3843889059517083,-9.805776654021864,,,,,,,,,,
acc,1778673014.0,13.0,-0.5472670747223788,3.3857589473003507,-9.807470599597046,,,,,,,,,,
acc,1778673014.0,13.0,-0.5460921253092934,3.3864421097065613,-9.80808424855926,,,,,,,,,,
acc,1778673014.0,13.0,-0.543543481913245,3.3871190641218774,-9.809792719064934,,,,,,,,,,
acc,1778673014.0,13.0,-0.5399885983418112,3.3909135705533133,-9.810420760967654,,,,,,,,,,
acc,1778673014.0,13.0,-0.5371404476750021,3.391194921326957,-9.810297668772108,,,,,,,,,,
acc,1778673014.0,13.0,-0.5339987111316814,3.3911187445662963,-9.811276092988328,,,,,,,,,,
acc,1778673014.0,13.0,-0.5305305622071927,3.395941799759274,-9.809086419087906,,,,,,,,,,
acc,1778673014.0,13.0,-0.5281233288786351,3.4010404945992745,-9.808655984826858,,,,,,,,,,
acc,1778673014.0,13.0,-0.5268028648197809,3.404353524213083,-9.805815691022424,,,,,,,,,,
acc,1778673014.0,13.0,-0.5247844764519355,3.4062520769605267,-9.803675636546872,,,,,,,,,,
acc,1778673014.0,13.0,-0.5217550203212491,3.409517748207487,-9.803258867364917,,,,,,,,,,
acc,1778673014.0,13.0,-0.5190725606896465,3.413818638258754,-9.800077152689411,,,,,,,,,,
acc,1778673014.0,13.0,-0.5164144769382223,3.4222335582590704,-9.800757986921779,,,,,,,,,,
acc,1778673014.0,13.0,-0.5148454510558562,3.429897572447299,-9.802887993949376,,,,,,,,,,
acc,1778673014.0,13.0,-0.5136456449016675,3.4361075717731624,-9.80112951472158,,,,,,,,,,
acc,1778673014.0,13.0,-0.5113918471425933,3.4391019420265256,-9.802865689490996,,,,,,,,,,
acc,1778673014.0,13.0,-0.509158529954209,3.4427790346597487,-9.80391164912627,,,,,,,,,,
acc,1778673014.0,13.0,-0.5076554398615482,3.442589076817778,-9.804948103982262,,,,,,,,,,
acc,1778673014.0,13.0,-0.5051011050598527,3.4371828380114082,-9.80597514043021,,,,,,,,,,
acc,1778673014.0,13.0,-0.5029249527113028,3.435304400895714,-9.808022244105123,,,,,,,,,,
acc,1778673014.0,13.0,-0.5028628789032227,3.4362117661288285,-9.808275918423636,,,,,,,,,,
acc,1778673014.0,13.0,-0.502446398307445,3.438530751278578,-9.808172316707731,,,,,,,,,,
acc,1778673014.0,13.0,-0.5027436349629414,3.439089330807536,-9.810199454339088,,,,,,,,,,
acc,1778673014.0,13.0,-0.5016537996785191,3.4382229691779345,-9.812208171091566,,,,,,,,,,
acc,1778673014.0,13.0,-0.5019582387869057,3.440168716474673,-9.811110425125468,,,,,,,,,,
acc,1778673014.0,13.0,-0.5026148822760964,3.4431261825462367,-9.813501328981742,,,,,,,,,,
acc,1778673014.0,13.0,-0.5022006552598622,3.4474766389856066,-9.814805602869756,,,,,,,,,,
acc,1778673014.0,13.0,-0.5021451632424843,3.4496932586840163,-9.812583855827897,,,,,,,,,,
acc,1778673014.0,13.0,-0.5024451372624718,3.4508248412454905,-9.81460639955543,,,,,,,,,,
acc,1778673014.0,13.0,-0.501677490968821,3.4547503680518625,-9.813486860557083,,,,,,,,,,
acc,1778673014.0,13.0,-0.4988580111987671,3.458995193916331,-9.813371400652308,,,,,,,,,,
acc,1778673014.0,13.0,-0.4953542197951132,3.4649407791465325,-9.813931428222267,,,,,,,,,,
acc,1778673014.0,13.0,-0.4932666387358298,3.470122403390198,-9.811717624926004,,,,,,,,,,
acc,1778673014.0,13.0,-0.49084305695230257,3.4714233052738077,-9.812292680583733,,,,,,,,,,
acc,1778673014.0,13.0,-0.48776706940275355,3.4734223183174078,-9.810839204894695,,,,,,,,,,
acc,1778673014.0,13.0,-0.48436406291488715,3.4778169370117133,-9.808689004504862,,,,,,,,,,
acc,1778673014.0,13.0,-0.48099198001569604,3.4828815538352114,-9.808226678158018,,,,,,,,,,
acc,1778673014.0,13.0,-0.4780055105591179,3.4903494221926343,-9.80780405648145,,,,,,,,,,
acc,1778673014.0,13.0,-0.47572060874930544,3.492850889279737,-9.808095207860815,,,,,,,,,,
acc,1778673014.0,13.0,-0.4727820409694924,3.493235321647201,-9.810123046190332,,,,,,,,,,
acc,1778673014.0,13.0,-0.47089957640812374,3.496065535029274,-9.810357630230888,,,,,,,,,,
acc,1778673014.0,13.0,-0.46974415069602643,3.4992249916462157,-9.812009947842997,,,,,,,,,,
acc,1778673014.0,13.0,-0.4672148535874357,3.499906472528432,-9.811268974019987,,,,,,,,,,
acc,1778673014.0,13.0,-0.46399860791553976,3.501646655108193,-9.81259353362465,,,,,,,,,,
acc,1778673014.0,13.0,-0.46152152134554436,3.504400433544538,-9.811847256677288,,,,,,,,,,
acc,1778673014.0,13.0,-0.45938641181612255,3.505744817107914,-9.812066172579673,,,,,,,,,,
acc,1778673014.0,13.0,-0.45798064604268424,3.5095262493898414,-9.810579260840358,,,,,,,,,,
acc,1778673014.0,13.0,-0.45939188174724305,3.513273319275794,-9.80946082264648,,,,,,,,,,
acc,1778673014.0,13.0,-0.45901546631600193,3.5166313681608004,-9.80899148268196,,,,,,,,,,
acc,1778673014.0,13.0,-0.45622870046649544,3.5188940075849686,-9.807887472846904,,,,,,,,,,
acc,1778673014.0,13.0,-0.4527573257076476,3.51939675341045,-9.806828989661215,,,,,,,,,,
acc,1778673014.0,13.0,-0.45002742844378746,3.5261778322583384,-9.80783893424145,,,,,,,,,,
acc,1778673014.0,13.0,-0.4490616708149199,3.531157957826205,-9.807100359546485,,,,,,,,,,
acc,1778673014.0,13.0,-0.45019899270196406,3.535382895672697,-9.805694067194151,,,,,,,,,,
acc,1778673014.0,13.0,-0.44887671427143755,3.5326121011098315,-9.807743725019229,,,,,,,,,,
acc,1778673014.0,13.0,-0.4454721480238478,3.5263878106866278,-9.80768045377807,,,,,,,,,,
acc,1778673014.0,13.0,-0.4438378522211529,3.5202200812477735,-9.806233395669672,,,,,,,,,,
acc,1778673014.0,13.0,-0.4429283401238998,3.510984695224492,-9.806148354639381,,,,,,,,,,
acc,1778673014.0,13.0,-0.4423820546619646,3.504956936017282,-9.805070180700508,,,,,,,,,,
acc,1778673014.0,13.0,-0.44042086810250713,3.5031725589745837,-9.806060604372838,,,,,,,,,,
acc,1778673014.0,13.0,-0.43815803570174605,3.5017238642255157,-9.802888924289565,,,,,,,,,,
acc,1778673014.0,13.0,-0.437655098653076,3.4999688665514808,-9.800420503974472,,,,,,,,,,
acc,1778673014.0,13.0,-0.43715673186263615,3.4992592168310575,-9.797655047121077,,,,,,,,,,
acc,1778673014.0,13.0,-0.43524302853115776,3.4947223795698856,-9.793814322499964,,,,,,,,,,
acc,1778673014.0,13.0,-0.4330272478717528,3.487777503857051,-9.791428364341149,,,,,,,,,,
acc,1778673014.0,13.0,-0.4322159732251207,3.484729373411754,-9.790519447341348,,,,,,,,,,
acc,1778673014.0,13.0,-0.4327964416516716,3.4838032362035554,-9.789618789795506,,,,,,,,,,
acc,1778673014.0,13.0,-0.4333716352816838,3.482211085744465,-9.789081287509562,,,,,,,,,,
acc,1778673014.0,13.0,-0.43291219291284083,3.482692203471842,-9.789187604408239,,,,,,,,,,
acc,1778673014.0,13.0,-0.43277640206087664,3.483168949216168,-9.792452162228674,,,,,,,,,,
acc,1778673014.0,13.0,-0.43335177779339656,3.484351295340564,-9.795012616288197,,,,,,,,,,
acc,1778673015.0,14.0,-0.4335669541466692,3.485877868183609,-9.797549803149039,,,,,,,,,,
acc,1778673015.0,14.0,-0.43239581334125354,3.484586332671712,-9.799354001609139,,,,,,,,,,
acc,1778673015.0,14.0,-0.42985094394497564,3.4833065335208904,-9.801106310709415,,,,,,,,,,
acc,1778673015.0,14.0,-0.42800362931461805,3.4858720003063746,-9.802878190695488,,,,,,,,,,
acc,1778673015.0,14.0,-0.4272380049817245,3.4877397160674932,-9.804633969364094,,,,,,,,,,
acc,1778673015.0,14.0,-0.42612437620901955,3.4881705943697003,-9.80779365829868,,,,,,,,,,
acc,1778673015.0,14.0,-0.42502086713434734,3.4893074898557064,-9.807694438947015,,,,,,,,,,
acc,1778673015.0,14.0,-0.4235724149379144,3.490789025076555,-9.807986586435899,,,,,,,,,,
acc,1778673015.0,14.0,-0.4221371250260789,3.4981850371507006,-9.807921108279613,,,,,,,,,,
acc,1778673015.0,14.0,-0.42071487779134764,3.5030645662409623,-9.806826825084459,,,,,,,,,,
acc,1778673015.0,14.0,-0.41863111643879014,3.5071898217440927,-9.809221151155691,,,,,,,,,,
acc,1778673015.0,14.0,-0.4165662905126287,3.5126974557508186,-9.80531081811482,,,,,,,,,,
acc,1778673015.0,14.0,-0.4131003626755424,3.515705775812423,-9.806299055081645,,,,,,,,,,
acc,1778673015.0,14.0,-0.41002090106274436,3.5186867588553086,-9.803480179025206,,,,,,,,,,
acc,1778673015.0,14.0,-0.4066144520810503,3.5237349568375165,-9.804875516482154,,,,,,,,,,
acc,1778673015.0,14.0,-0.40497829065249136,3.532215946513579,-9.807642545223999,,,,,,,,,,
acc,1778673015.0,14.0,-0.40442190074308576,3.534691937587955,-9.805876355095437,,,,,,,,,,
acc,1778673015.0,14.0,-0.40387056682541506,3.5354060872212285,-9.807214423810487,,,,,,,,,,
acc,1778673015.0,14.0,-0.402614310320764,3.5382080508211686,-9.807120468042395,,,,,,,,,,
acc,1778673015.0,14.0,-0.40034006954415496,3.5315779474603755,-9.80606895473533,,,,,,,,,,
acc,1778673015.0,14.0,-0.39808649510669886,3.527457358078196,-9.806695340636692,,,,,,,,,,
acc,1778673015.0,14.0,-0.3965278283976719,3.5251135457412643,-9.807670996256636,,,,,,,,,,
acc,1778673015.0,14.0,-0.3953382963683665,3.5252048029061385,-9.808318318545984,,,,,,,,,,
acc,1778673015.0,14.0,-0.3945145446411076,3.5263601342994613,-9.808214331534408,,,,,,,,,,
acc,1778673015.0,14.0,-0.3923139075507696,3.5278599288108285,-9.808111289467128,,,,,,,,,,
acc,1778673015.0,14.0,-0.390133267952749,3.52828120007519,-9.806340839795158,,,,,,,,,,
acc,1778673015.0,14.0,-0.38726251149288565,3.523835597829979,-9.805260916717456,,,,,,,,,,
acc,1778673015.0,14.0,-0.3851277746265299,3.521879667787936,-9.804226301409416,,,,,,,,,,
acc,1778673015.0,14.0,-0.3836868655952031,3.51994151155156,-9.805579364389478,,,,,,,,,,
acc,1778673015.0,14.0,-0.38122965025490785,3.5180209676078307,-9.806565161039233,,,,,,,,,,
acc,1778673015.0,14.0,-0.37914973482948117,3.5150529724165804,-9.804098828615077,,,,,,,,,,
acc,1778673015.0,14.0,-0.3770887198819751,3.5121119478063907,-9.805488544317882,,,,,,,,,,
acc,1778673015.0,14.0,-0.37469146280048776,3.5123213522822416,-9.802996500898239,,,,,,,,,,
acc,1778673015.0,14.0,-0.37231598992425396,3.512528853870781,-9.804005768384227,,,,,,,,,,
acc,1778673015.0,14.0,-0.37134647420561195,3.5158936678140704,-9.803302026195569,,,,,,,,,,
acc,1778673015.0,14.0,-0.37145066301750695,3.5223516088199767,-9.805018459052398,,,,,,,,,,
acc,1778673015.0,14.0,-0.371198943277807,3.5228229349466655,-9.807819683215067,,,,,,,,,,
acc,1778673015.0,14.0,-0.37023957831588944,3.5211956745253747,-9.807081283457109,,,,,,,,,,
acc,1778673015.0,14.0,-0.37138323477805224,3.5195832012436403,-9.809508800676793,,,,,,,,,,
acc,1778673015.0,14.0,-0.37216152781579204,3.520079684271227,-9.811559287852537,,,,,,,,,,
acc,1778673015.0,14.0,-0.3732877192581553,3.520926617462673,-9.809012078750428,,,,,,,,,,
acc,1778673015.0,14.0,-0.3736937442096331,3.5207364544078366,-9.809966681851993,,,,,,,,,,
acc,1778673015.0,14.0,-0.3723567377874471,3.52470112302884,-9.809883210295979,,,,,,,,,,
acc,1778673015.0,14.0,-0.37071241351317247,3.528629764160068,-9.809765002897567,,,,,,,,,,
acc,1778673015.0,14.0,-0.36872806966653343,3.531493305140562,-9.807234098709984,,,,,,,,,,
acc,1778673015.0,14.0,-0.3660518251915744,3.5364251282722927,-9.809979694689938,,,,,,,,,,
acc,1778673015.0,14.0,-0.36339990011873247,3.5413121352480132,-9.810215581385188,,,,,,,,,,
acc,1778673015.0,14.0,-0.36148200608838527,3.5412561935992106,-9.81012984804484,,,,,,,,,,
acc,1778673015.0,14.0,-0.3592265693645895,3.540171360252168,-9.810754826409294,,,,,,,,,,
acc,1778673015.0,14.0,-0.35734659896555543,3.5370020813926857,-9.809634792827445,,,,,,,,,,
acc,1778673015.0,14.0,-0.35686808302477996,3.536310876609766,-9.809518842832784,,,,,,,,,,
acc,1778673015.0,14.0,-0.35536450628942423,3.539459580037041,-9.809403946491692,,,,,,,,,,
acc,1778673015.0,14.0,-0.3535196309894421,3.538036101904244,-9.807941226768211,,,,,,,,,,
acc,1778673015.0,14.0,-0.35133654946475706,3.536625559113281,-9.808905560849176,,,,,,,,,,
acc,1778673015.0,14.0,-0.3484633732684207,3.5341984340712305,-9.810216102754168,,,,,,,,,,
acc,1778673015.0,14.0,-0.34561630601987287,3.5307284702410926,-9.81261513343905,,,,,,,,,,
acc,1778673015.0,14.0,-0.34386001395825083,3.529384332905447,-9.81389196594704,,,,,,,,,,
acc,1778673015.0,14.0,-0.34314908161214813,3.5301467134733033,-9.817961431878718,,,,,,,,,,
acc,1778673015.0,14.0,-0.34279958046680814,3.5288078626415316,-9.817769816568283,,,,,,,,,,
acc,1778673015.0,14.0,-0.34316317883348074,3.5278361489922774,-9.820064702168379,,,,,,,,,,
acc,1778673015.0,14.0,-0.34352347313172094,3.5272282362994005,-9.818505106689933,,,,,,,,,,
acc,1778673015.0,14.0,-0.3435255316125695,3.524176573389866,-9.81976391055975,,,,,,,,,,
acc,1778673015.0,14.0,-0.3428176387536149,3.522891974043233,-9.821011275505441,,,,,,,,,,
acc,1778673015.0,14.0,-0.3428261112486623,3.5237133515701635,-9.82082744020588,,,,,,,,,,
acc,1778673015.0,14.0,-0.34212457411887964,3.523817332492287,-9.823485005979407,,,,,,,,,,
acc,1778673015.0,14.0,-0.3428137828618879,3.5236009011118905,-9.822284785862617,,,,,,,,,,
acc,1778673015.0,14.0,-0.3445616230777089,3.5219665712050596,-9.82382871976795,,,,,,,,,,
acc,1778673015.0,14.0,-0.3434893442523152,3.5193176926315153,-9.824329214598466,,,,,,,,,,
acc,1778673015.0,14.0,-0.34242680937228065,3.518432217464115,-9.824079734369514,,,,,,,,,,
acc,1778673015.0,14.0,-0.3424388333877398,3.5189391596397726,-9.825642851690482,,,,,,,,,,
acc,1778673015.0,14.0,-0.34280570991279125,3.517702153393188,-9.827156270389164,,,,,,,,,,
acc,1778673015.0,14.0,-0.3428142908068579,3.514062626123957,-9.828655936443704,,,,,,,,,,
acc,1778673015.0,14.0,-0.34317775549863366,3.5128699336090143,-9.827408727369683,,,,,,,,,,
acc,1778673015.0,14.0,-0.3414436228814966,3.5116880792552103,-9.827486234044695,,,,,,,,,,
acc,1778673015.0,14.0,-0.3383408776580222,3.509132602753569,-9.824829788949295,,,,,,,,,,
acc,1778673015.0,14.0,-0.3362957275553355,3.5093690809481926,-9.822871921610481,,,,,,,,,,
acc,1778673015.0,14.0,-0.33529856206092173,3.5099583810935044,-9.82373608185822,,,,,,,,,,
acc,1778673015.0,14.0,-0.33466542880729305,3.5108972879607103,-9.821433182325762,,,,,,,,,,
acc,1778673015.0,14.0,-0.3333636106485735,3.51321203376015,-9.822274913148458,,,,,,,,,,
acc,1778673015.0,14.0,-0.3323930897042971,3.516215677779807,-9.822399071500307,,,,,,,,,,
acc,1778673015.0,14.0,-0.33111192060394906,3.520576398180837,-9.824651890423208,,,,,,,,,,
acc,1778673015.0,14.0,-0.33051683193781267,3.5248974921150333,-9.825499875849209,,,,,,,,,,
acc,1778673015.0,14.0,-0.33166648360603923,3.5249907125889464,-9.827014593789016,,,,,,,,,,
acc,1778673015.0,14.0,-0.3310663555495326,3.521604420592182,-9.830609841733464,,,,,,,,,,
acc,1778673015.0,14.0,-0.32944228089170285,3.5144152640731523,-9.831403686435397,,,,,,,,,,
acc,1778673015.0,14.0,-0.32921733533217656,3.5093857399517807,-9.832190317361198,,,,,,,,,,
acc,1778673015.0,14.0,-0.3303787957050126,3.506496214263909,-9.832969800063442,,,,,,,,,,
acc,1778673015.0,14.0,-0.3301453399064053,3.506082220496794,-9.831328428543186,,,,,,,,,,
acc,1778673015.0,14.0,-0.32991400555279093,3.509860586745488,-9.834529514303645,,,,,,,,,,
acc,1778673015.0,14.0,-0.32968477336630664,3.5066117842859565,-9.835642702174589,,,,,,,,,,
acc,1778673015.0,14.0,-0.33048702429188154,3.4999138296912995,-9.837420212628192,,,,,,,,,,
acc,1778673015.0,14.0,-0.33337628859508794,3.5009440127803715,-9.8405304471478,,,,,,,,,,
acc,1778673015.0,14.0,-0.33623929775566896,3.504059137996112,-9.841589103715561,,,,,,,,,,
acc,1778673015.0,14.0,-0.3384018520835773,3.50505165209774,-9.842283178351833,,,,,,,,,,
acc,1778673015.0,14.0,-0.33947985148782484,3.5081294506293075,-9.84091213665395,,,,,,,,,,
acc,1778673015.0,14.0,-0.33951865491542266,3.514302984371621,-9.838488659393269,,,,,,,,,,
acc,1778673015.0,14.0,-0.3388471730968699,3.516586782138691,-9.83750706987233,,,,,,,,,,
acc,1778673015.0,14.0,-0.3392466875335969,3.5143417522228733,-9.831245404338594,,,,,,,,,,
acc,1778673015.0,14.0,-0.339287609754157,3.5107327613820196,-9.831997970148535,,,,,,,,,,
acc,1778673015.0,14.0,-0.34035756015646196,3.513049002257064,-9.831359335468262,,,,,,,,,,
acc,1778673015.0,14.0,-0.3407433494979726,3.5153441951322906,-9.827247829698834,,,,,,,,,,
acc,1778673015.0,14.0,-0.33970576785049583,3.5134654276363317,-9.828036722020054,,,,,,,,,,
acc,1778673015.0,14.0,-0.3380031856633437,3.514372465488592,-9.82292600924902,,,,,,,,,,
acc,1778673015.0,14.0,-0.33631607507500083,3.510408224691489,-9.823044251000931,,,,,,,,,,
acc,1778673015.0,14.0,-0.33254999195067697,3.5088937784522334,-9.821102609091437,,,,,,,,,,
acc,1778673015.0,14.0,-0.3315868644715927,3.5119366630524538,-9.819924038143341,,,,,,,,,,
acc,1778673015.0,14.0,-0.3327267926067863,3.5128575929990187,-9.823548224583392,,,,,,,,,,
acc,1778673015.0,14.0,-0.33108762932879887,3.5137701543283315,-9.820892070362504,,,,,,,,,,
acc,1778673015.0,14.0,-0.3301377905402532,3.5164137648559453,-9.82177422179115,,,,,,,,,,
acc,1778673015.0,14.0,-0.3291965830675879,3.5180039433959003,-9.82193842435423,,,,,,,,,,
acc,1778673015.0,14.0,-0.3265245957952124,3.5181598064963713,-9.820752258237743,,,,,,,,,,
acc,1778673015.0,14.0,-0.3263261636419768,3.520053585929016,-9.819221909202657,,,,,,,,,,
acc,1778673015.0,14.0,-0.3247451637608688,3.5195163944585284,-9.82114863766335,,,,,,,,,,
acc,1778673015.0,14.0,-0.32282355978281857,3.5182741427997297,-9.822347925043132,,,,,,,,,,
acc,1778673015.0,14.0,-0.3219488177323358,3.5187825214215986,-9.822506914285752,,,,,,,,,,
acc,1778673015.0,14.0,-0.3217919663045151,3.518931309476327,-9.825752668001108,,,,,,,,,,
acc,1778673015.0,14.0,-0.32128156934662905,3.5170199453783515,-9.825170785241536,,,,,,,,,,
acc,1778673015.0,14.0,-0.32042083957559875,3.5123217139329035,-9.82743392066691,,,,,,,,,,
acc,1778673015.0,14.0,-0.3195679313745346,3.5101154412792894,-9.828931063675043,,,,,,,,,,
acc,1778673015.0,14.0,-0.3204621154365106,3.5127922626876638,-9.82832029839627,,,,,,,,,,
acc,1778673015.0,14.0,-0.3203187738771951,3.5129954850484597,-9.830909775535314,,,,,,,,,,
acc,1778673015.0,14.0,-0.31808243134016334,3.5086887862017293,-9.829606591155244,,,,,,,,,,
acc,1778673015.0,14.0,-0.31622137252919846,3.5086098300049318,-9.82934464903868,,,,,,,,,,
