sensor,time,t,ax,ay,az,wx,wy,wz,lat,lon,alt,v_kmh,satellites,x,y
acc,1778673121.0,120.0,0.0,0.128906,-9.800781,,,,,,,,,,
acc,1778673121.0,120.0,0.0,0.128906,-9.811769359108464,,,,,,,,,,
acc,1778673121.0,120.0,0.009303524269471047,0.128906,-9.809152225688587,,,,,,,,,,
acc,1778673121.0,120.0,0.007513405739210379,0.12138996543033709,-9.807541493476569,,,,,,,,,,
acc,1778673121.0,120.0,0.006300569534384078,0.12260322598876013,-9.799514011369315,,,,,,,,,,
acc,1778673121.0,120.0,0.0005360747837502193,0.12347962044470008,-9.799690184877946,,,,,,,,,,
acc,1778673121.0,120.0,0.00047059921454303984,0.11937140371634239,-9.799823415806133,,,,,,,,,,
acc,1778673121.0,120.0,0.0004193458411831188,0.11615554827023347,-9.799927707140872,,,,,,,,,,
acc,1778673121.0,120.0,0.0003781316774463512,0.11356959569343486,-9.80001157050175,,,,,,,,,,
acc,1778673121.0,120.0,0.0038425098870141796,0.11494306497654194,-9.800080477643231,,,,,,,,,,
acc,1778673121.0,120.0,0.003526404792882792,0.11287828374492234,-9.800138106300551,,,,,,,,,,
acc,1778673121.0,120.0,0.003258104457569031,0.11409772447794034,-9.80018701974222,,,,,,,,,,
acc,1778673121.0,120.0,0.005792154868995992,0.1123811470061084,-9.800229059187755,,,,,,,,,,
acc,1778673121.0,120.0,0.007993633326488224,0.11088985531443031,-9.800265581323737,,,,,,,,,,
acc,1778673121.0,120.0,0.007496933600213483,0.11200932299181249,-9.80029760785097,,,,,,,,,,
acc,1778673121.0,120.0,0.009345878126288901,0.1107109746184765,-9.800325922864047,,,,,,,,,,
acc,1778673121.0,120.0,0.008828034527704892,0.10955476125018984,-9.800351138127775,,,,,,,,,,
acc,1778673121.0,120.0,0.010417573938880213,0.1085184753597348,-9.798114658872896,,,,,,,,,,
acc,1778673121.0,120.0,0.009896447228427464,0.10758430700434364,-9.79824803940743,,,,,,,,,,
acc,1778673121.0,120.0,0.011288117083525985,0.10673780665951897,-9.798368902705596,,,,,,,,,,
acc,1778673121.0,120.0,0.010773164653673386,0.10596712836796622,-9.798478940132883,,,,,,,,,,
acc,1778673121.0,120.0,0.012009525424723996,0.10526246862581974,-9.79857955143333,,,,,,,,,,
acc,1778673121.0,120.0,0.011505710660848099,0.10461564438794826,-9.798671904981916,,,,,,,,,,
acc,1778673121.0,120.0,0.011041582206004095,0.10559549218267822,-9.797023658722008,,,,,,,,,,
acc,1778673121.0,120.0,0.01061259666206974,0.10498351807283646,-9.79716963826206,,,,,,,,,,
acc,1778673121.0,120.0,0.010214878808304488,0.10588003741412215,-9.798622522048694,,,,,,,,,,
acc,1778673121.0,120.0,0.009845103129994825,0.10671357064478601,-9.799973331630465,,,,,,,,,,
acc,1778673121.0,120.0,0.00950039969051783,0.1074905870587417,-9.800001610264143,,,,,,,,,,
acc,1778673121.0,120.0,0.009178278704309767,0.10689226107123176,-9.800028036288156,,,,,,,,,,
acc,1778673121.0,120.0,0.008876569615024567,0.10633184931131404,-9.80120847139988,,,,,,,,,,
acc,1778673121.0,120.0,0.008593371525580585,0.10580582094376752,-9.802316482329035,,,,,,,,,,
acc,1778673121.0,120.0,0.008327012586625649,0.10531107057975561,-9.80226888873405,,,,,,,,,,
acc,1778673121.0,120.0,0.008076016509826351,0.1048448560766898,-9.803283756280983,,,,,,,,,,
acc,1778673121.0,120.0,0.007839074789113403,0.10440474694037816,-9.80321032807798,,,,,,,,,,
acc,1778673121.0,120.0,0.007615023526134884,0.10398858127929364,-9.803140894625857,,,,,,,,,,
acc,1778673121.0,120.0,0.007402823993534364,0.10468292773639895,-9.803075134023166,,,,,,,,,,
acc,1778673121.0,120.0,0.007201546251112349,0.10427946739783701,-9.803012758081579,,,,,,,,,,
acc,1778673121.0,120.0,0.007010355269713467,0.10493326739751511,-9.80388687720762,,,,,,,,,,
acc,1778673121.0,120.0,0.006828499126170873,0.10555514582357724,-9.803806307417707,,,,,,,,,,
acc,1778673121.0,120.0,0.00665529891742934,0.10614742426469896,-9.803729572564766,,,,,,,,,,
acc,1778673121.0,120.0,0.006490140108675342,0.1067122041947989,-9.803656400384469,,,,,,,,,,
acc,1778673121.0,120.0,0.00633246508311199,0.10725139244995772,-9.803586543829521,,,,,,,,,,
acc,1778673121.0,120.0,0.006181766703073185,0.10776672324694393,-9.80351977821697,,,,,,,,,,
acc,1778673121.0,120.0,0.006037582725853754,0.10825977727893815,-9.804275903185053,,,,,,,,,,
acc,1778673121.0,120.0,0.0058994909447532525,0.10873199833130409,-9.804195967650003,,,,,,,,,,
acc,1778673121.0,120.0,0.005767104947780637,0.10918470778519566,-9.804119334953858,,,,,,,,,,
acc,1778673121.0,120.0,0.005640070404318134,0.10961911731574572,-9.804045799989499,,,,,,,,,,
acc,1778673121.0,120.0,0.0055180618046282255,0.11003634004170457,-9.804735706743381,,,,,,,,,,
acc,1778673121.0,120.0,0.005400779589058401,0.11043740034246123,-9.804651652453087,,,,,,,,,,
acc,1778673121.0,120.0,0.005287947613664756,0.11082324252464104,-9.804570787578832,,,,,,,,,,
acc,1778673121.0,120.0,0.005179310907140891,0.11119473849255047,-9.805215202179587,,,,,,,,,,
acc,1778673121.0,120.0,0.005074633680722542,0.11155269455354186,-9.80583612981288,,,,,,,,,,
acc,1778673121.0,120.0,0.004973697558395875,0.1118978574700238,-9.80573558162886,,,,,,,,,,
acc,1778673121.0,120.0,0.004876299999472477,0.11223091985365116,-9.805638558408113,,,,,,,,,,
acc,1778673121.0,120.0,0.005535624955968524,0.11255252498362919,-9.805544872759258,,,,,,,,,,
acc,1778673121.0,120.0,0.006172687811896893,0.1128632711196072,-9.8054543504054,,,,,,,,,,
acc,1778673121.0,120.0,0.00605708724443297,0.11316371536994964,-9.80602524063975,,,,,,,,,,
acc,1778673121.0,120.0,0.005945250626652635,0.11273314569358048,-9.806577542711741,,,,,,,,,,
acc,1778673121.0,120.0,0.006548285590062707,0.11302764309412418,-9.806471991352135,,,,,,,,,,
acc,1778673121.0,120.0,0.007132364762302012,0.11331288326819884,-9.80636975789224,,,,,,,,,,
acc,1778673121.0,120.0,0.007005925877923969,0.1128968390084165,-9.806270683274423,,,,,,,,,,
acc,1778673121.0,120.0,0.007566879721684288,0.11249343406861904,-9.806789835909518,,,,,,,,,,
acc,1778673121.0,120.0,0.007436134066122067,0.1121020818581526,-9.80668601118664,,,,,,,,,,
acc,1778673121.0,120.0,0.007309231134176061,0.11172223181481324,-9.807185217240843,,,,,,,,,,
acc,1778673121.0,120.0,0.007185998117436966,0.11201194868838486,-9.807669986718508,,,,,,,,,,
acc,1778673121.0,120.0,0.007066272506503357,0.11164260943216914,-9.806839304908934,,,,,,,,,,
acc,1778673121.0,120.0,0.006949901335628688,0.11192691222006704,-9.806739533489827,,,,,,,,,,
acc,1778673121.0,120.0,0.007472762304790991,0.11220337195522466,-9.806642514461958,,,,,,,,,,
acc,1778673121.0,120.0,0.007352434565444974,0.11184333739627127,-9.806548131320143,,,,,,,,,,
acc,1778673121.0,120.0,0.007235327105712648,0.11149293828760326,-9.806456274113822,,,,,,,,,,
acc,1778673121.0,120.0,0.007736875098348862,0.11115177848189822,-9.80692086871618,,,,,,,,,,
acc,1778673121.0,120.0,0.007616218471548101,0.11081948351221566,-9.80682511741622,,,,,,,,,,
acc,1778673121.0,120.0,0.008101625777402015,0.11049569913015361,-9.806731818455003,,,,,,,,,,
acc,1778673121.0,120.0,0.007977812847182514,0.11018008996064,-9.806640875193692,,,,,,,,,,
acc,1778673121.0,120.0,0.007857082389421753,0.10987233826264434,-9.805901934262511,,,,,,,,,,
acc,1778673121.0,120.0,0.007739316224282282,0.11015762499380909,-9.80582517895308,,,,,,,,,,
acc,1778673121.0,120.0,0.007624402227361659,0.10985600663731122,-9.805750282573623,,,,,,,,,,
acc,1778673121.0,120.0,0.007512233947071469,0.11013626532924696,-9.80567717574322,,,,,,,,,,
acc,1778673121.0,120.0,0.0074027102506412715,0.10984041672769111,-9.806118359730963,,,,,,,,,,
acc,1778673121.0,120.0,0.0072957349962799066,0.109551452052142,-9.806549278069618,,,,,,,,,,
acc,1778673121.0,120.0,0.007191216729266774,0.10926912426244233,-9.806466642059977,,,,,,,,,,
acc,1778673121.0,120.0,0.007089068399959846,0.10899319821756143,-9.806385879810788,,,,,,,,,,
acc,1778673121.0,120.0,0.00698920710189846,0.10927370309095842,-9.806306925773134,,,,,,,,,,
acc,1778673121.0,120.0,0.0068915538283500204,0.10954800574539286,-9.806720931447144,,,,,,,,,,
acc,1778673121.0,120.0,0.00733745323444249,0.10927489779990046,-9.806638600854326,,,,,,,,,,
acc,1778673121.0,120.0,0.007236547807154013,0.1095448667785573,-9.806558046512349,,,,,,,,,,
acc,1778673121.0,120.0,0.007137793308028217,0.10927601631520002,-9.805892827192864,,,,,,,,,,
acc,1778673121.0,120.0,0.007570174949240872,0.10954188492845975,-9.805823592575615,,,,,,,,,,
acc,1778673121.0,120.0,0.00799355518369755,0.10980221863620201,-9.80575579929836,,,,,,,,,,
acc,1778673121.0,120.0,0.00840822307049147,0.11005719517895263,-9.80568940107584,,,,,,,,,,
acc,1778673121.0,120.0,0.008296795053974916,0.11030698457170647,-9.805624353634595,,,,,,,,,,
acc,1778673121.0,120.0,0.008701668301296707,0.11003768959941626,-9.806023284324759,,,,,,,,,,
acc,1778673121.0,120.0,0.008587934542140655,0.11028430482266739,-9.805954765888734,,,,,,,,,,
acc,1778673121.0,120.0,0.008476438246419835,0.11001893038834343,-9.806344035220112,,,,,,,,,,
acc,1778673121.0,120.0,0.00887092191846141,0.11026253031416917,-9.806272284811243,,,,,,,,,,
acc,1778673121.0,120.0,0.009257811350057448,0.11050144067603994,-9.80620191567591,,,,,,,,,,
acc,1778673121.0,120.0,0.00963733153256275,0.11073580040968672,-9.806580568632453,,,,,,,,,,
acc,1778673121.0,120.0,0.010009698371216747,0.11096574284002013,-9.80650717555278,,,,,,,,,,
acc,1778673121.0,120.0,0.00988379606857571,0.1107000728906641,-9.806435151535602,,,,,,,,,,
acc,1778673121.0,120.0,0.00976021838160134,0.11092770267438139,-9.806804027395351,,,,,,,,,,
acc,1778673121.0,120.0,0.0096388994104146,0.11115117190938795,-9.806729161500096,,,,,,,,,,
acc,1778673121.0,120.0,0.0095197758123288,0.11137059727275082,-9.807090142748043,,,,,,,,,,
acc,1778673121.0,120.0,0.009402786678738784,0.11158609095796515,-9.807012609289448,,,,,,,,,,
acc,1778673121.0,120.0,0.009287873419034696,0.11179776088878458,-9.806936451596934,,,,,,,,,,
acc,1778673121.0,120.0,0.009174979651077482,0.11200571092096524,-9.807288964376566,,,,,,,,,,
acc,1778673121.0,120.0,0.009064051097807679,0.1117377684705253,-9.807210280924343,,,,,,,,,,
acc,1778673121.0,120.0,0.008955035489590837,0.11194425508252663,-9.807132954355593,,,,,,,,,,
acc,1778673121.0,120.0,0.008847882471931901,0.11214721375921541,-9.807477626084498,,,,,,,,,,
acc,1778673121.0,120.0,0.008742543518217613,0.1123467364149159,-9.807397899032585,,,,,,,,,,
acc,1778673121.0,120.0,0.008638971847170478,0.11254291165810952,-9.807319509569778,,,,,,,,,,
acc,1778673121.0,120.0,0.008997645348508899,0.11273582493941778,-9.807242423550953,,,,,,,,,,
acc,1778673121.0,120.0,0.008892070918572576,0.11292555869173493,-9.807166608036832,,,,,,,,,,
acc,1778673121.0,120.0,0.008788221425445324,0.1131121924629914,-9.807092031240941,,,,,,,,,,
acc,1778673121.0,120.0,0.00868605414117507,0.11284168857844676,-9.80742737944709,,,,,,,,,,
acc,1778673121.0,120.0,0.00903760415968233,0.11257552936539864,-9.807757341491056,,,,,,,,,,
acc,1778673121.0,120.0,0.008933469951273814,0.11231360930621517,-9.807676957820128,,,,,,,,,,
acc,1778673121.0,120.0,0.008830980611400214,0.112503965705062,-9.807597843862322,,,,,,,,,,
acc,1778673121.0,120.0,0.009176334732419883,0.1126913398079346,-9.807519969375527,,,,,,,,,,
acc,1778673121.0,120.0,0.00951632177025223,0.11243142257624174,-9.807443305121426,,,,,,,,,,
acc,1778673121.0,120.0,0.009408504157783213,0.11261807553388112,-9.807766143088028,,,,,,,,,,
acc,1778673121.0,120.0,0.009302335760147178,0.11236108599903843,-9.80768732062736,,,,,,,,,,
acc,1778673121.0,120.0,0.00963683034388073,0.11210799701095588,-9.807609694521611,,,,,,,,,,
acc,1778673121.0,120.0,0.009528932360785173,0.11185871998859416,-9.807533237601673,,,,,,,,,,
acc,1778673121.0,120.0,0.00942264724069076,0.111613169168288,-9.807457923562573,,,,,,,,,,
acc,1778673121.0,120.0,0.009317939032168106,0.11180533399102005,-9.807383726928993,,,,,,,,,,
acc,1778673121.0,120.0,0.009214772908266857,0.11156218304361284,-9.807310623022422,,,,,,,,,,
acc,1778673121.0,120.0,0.009113115122338096,0.11132258707911234,-9.807238587929858,,,,,,,,,,
acc,1778673122.0,121.0,0.009012932965913231,0.11108646900733793,-9.807554085863408,,,,,,,,,,
acc,1778673122.0,121.0,0.008914194728528859,0.11085375409029492,-9.807865036545335,,,,,,,,,,
acc,1778673122.0,121.0,0.00881686965939381,0.11062436985182812,-9.807787693120884,,,,,,,,,,
acc,1778673122.0,121.0,0.008720927930800844,0.11039824599138731,-9.807711449025678,,,,,,,,,,
acc,1778673122.0,121.0,0.008626340603191363,0.1101753143016887,-9.807636281261688,,,,,,,,,,
acc,1778673122.0,121.0,0.008533079591786915,0.10995550859006914,-9.807562167510175,,,,,,,,,,
acc,1778673122.0,121.0,0.008441117634706428,0.109738764603342,-9.807867977043706,,,,,,,,,,
acc,1778673122.0,121.0,0.00835042826249279,0.10994469284891542,-9.807791836237856,,,,,,,,,,
acc,1778673122.0,121.0,0.008260985768976926,0.11014778980856847,-9.807716742283985,,,,,,,,,,
acc,1778673122.0,121.0,0.008172765183411625,0.10993096190495032,-9.807642674217202,,,,,,,,,,
acc,1778673122.0,121.0,0.008085742243811266,0.11013300656878229,-9.80756961166768,,,,,,,,,,
acc,1778673122.0,121.0,0.007999893371437273,0.1099175917950982,-9.807497534839221,,,,,,,,,,
acc,1778673122.0,121.0,0.00791519564637248,0.10970506551756125,-9.807798644189942,,,,,,,,,,
acc,1778673122.0,121.0,0.008244044498452199,0.10949537181921658,-9.808095740314197,,,,,,,,,,
acc,1778673122.0,121.0,0.008568536481252399,0.10928845632133284,-9.808018721104142,,,,,,,,,,
acc,1778673122.0,121.0,0.008888754545550933,0.1094944641386873,-9.807942716322316,,,,,,,,,,
acc,1778673122.0,121.0,0.008795656594791807,0.10969777431004084,-9.80786770681338,,,,,,,,,,
acc,1778673122.0,121.0,0.00870377079004537,0.10989843735960989,-9.807793673936864,,,,,,,,,,
acc,1778673122.0,121.0,0.008613074612818279,0.11009650246397357,-9.807720599549503,,,,,,,,,,
acc,1778673122.0,121.0,0.008523546140676463,0.11029201749801838,-9.808013904886298,,,,,,,,,,
acc,1778673122.0,121.0,0.0084351640270578,0.11048502907902395,-9.80793890565348,,,,,,,,,,
acc,1778673122.0,121.0,0.008347907481896342,0.11067558260897643,-9.807864861554762,,,,,,,,,,
acc,1778673122.0,121.0,0.008261756253020523,0.11122653570392728,-9.80775144509918,,,,,,,,,,
acc,1778673122.0,121.0,0.008176690608289749,0.11140856903712933,-9.807679675200836,,,,,,,,,,
acc,1778673122.0,121.0,0.008092691318435593,0.11158832046048185,-9.807608804986275,,,,,,,,,,
acc,1778673122.0,121.0,0.008009739640575619,0.11212618599742304,-9.807498781373809,,,,,,,,,,
acc,1778673122.0,121.0,0.007927817302369454,0.1126573772109524,-9.807390123034114,,,,,,,,,,
acc,1778673122.0,121.0,0.007846906486788333,0.11282320965534272,-9.807322670731095,,,,,,,,,,
acc,1778673122.0,121.0,0.007766989817470748,0.1129870045265881,-9.807256047210414,,,,,,,,,,
acc,1778673122.0,121.0,0.007330743824079211,0.11275179157793984,-9.807190238341681,,,,,,,,,,
acc,1778673122.0,121.0,0.007256389120760036,0.11327222380364874,-9.807085612330328,,,,,,,,,,
acc,1778673122.0,121.0,0.006827062238132681,0.11343047945812182,-9.807021792781038,,,,,,,,,,
acc,1778673122.0,121.0,0.006758089116077017,0.11358682708320247,-9.807313930309645,,,,,,,,,,
acc,1778673122.0,121.0,0.0066899437925481775,0.11374129826235961,-9.807248055379336,,,,,,,,,,
acc,1778673122.0,121.0,0.006622612664079067,0.11389392383180462,-9.807536806138225,,,,,,,,,,
acc,1778673122.0,121.0,0.006556082446706434,0.11404473390350062,-9.807037274861221,,,,,,,,,,
acc,1778673122.0,121.0,0.00649034016619295,0.11380205674837798,-9.80697453895449,,,,,,,,,,
acc,1778673122.0,121.0,0.006425373148606167,0.11395324422418535,-9.806912542858157,,,,,,,,,,
acc,1778673122.0,121.0,0.0063611690112394224,0.11371233786868228,-9.807202573397142,,,,,,,,,,
acc,1778673122.0,121.0,0.006297715653860391,0.11347424858506963,-9.80748921242378,,,,,,,,,,
acc,1778673122.0,121.0,0.006235001250273727,0.11323893199917251,-9.807422410179218,,,,,,,,,,
acc,1778673122.0,121.0,0.006173014240184831,0.11300634473452713,-9.807356382741009,,,,,,,,,,
acc,1778673122.0,121.0,0.006111743321352409,0.11277644438293563,-9.80729111807021,,,,,,,,,,
acc,1778673122.0,121.0,0.006438272294364667,0.11254918947606041,-9.80757500165351,,,,,,,,,,
acc,1778673122.0,121.0,0.00637457064639422,0.11232453945801561,-9.807507780342906,,,,,,,,,,
acc,1778673122.0,121.0,0.006311596390638659,0.11210245465891579,-9.807441326614612,,,,,,,,,,
acc,1778673122.0,121.0,0.006249338522318688,0.1118828962693432,-9.807375628855807,,,,,,,,,,
acc,1778673122.0,121.0,0.006572523622829829,0.11166582631569719,-9.807310675703773,,,,,,,,,,
acc,1778673122.0,121.0,0.006507882546540651,0.11145120763639074,-9.807246456038765,,,,,,,,,,
acc,1778673122.0,121.0,0.006827595617013929,0.1112390038588606,-9.807528234883778,,,,,,,,,,
acc,1778673122.0,121.0,0.006760636212860909,0.11102917937735925,-9.807462063591153,,,,,,,,,,
acc,1778673122.0,121.0,0.0070769841804922155,0.11082169933149813,-9.807740946695553,,,,,,,,,,
acc,1778673122.0,121.0,0.00700776862812359,0.11061652958551296,-9.807672875813564,,,,,,,,,,
acc,1778673122.0,121.0,0.007320854003959779,0.1104136367082233,-9.807605560347339,,,,,,,,,,
acc,1778673122.0,121.0,0.007249441938735989,0.11021298795365958,-9.807538989432473,,,,,,,,,,
acc,1778673122.0,121.0,0.007178817152636979,0.11001455124233235,-9.807473152425684,,,,,,,,,,
acc,1778673122.0,121.0,0.007489035203742995,0.10981829514311897,-9.807408038898808,,,,,,,,,,
acc,1778673122.0,121.0,0.0074162582266833485,0.10962418885574475,-9.80734363863298,,,,,,,,,,
acc,1778673122.0,121.0,0.007723412034515876,0.10981133825983486,-9.807279941613016,,,,,,,,,,
acc,1778673122.0,121.0,0.007648537890031242,0.10999645028747614,-9.807216938021966,,,,,,,,,,
acc,1778673122.0,121.0,0.00757447638668841,0.1101795532150397,-9.806738545414769,,,,,,,,,,
acc,1778673122.0,121.0,0.007879022636493893,0.11036067476688287,-9.806680924239588,,,,,,,,,,
acc,1778673122.0,121.0,0.008180283021691952,0.11053984212983939,-9.806623924761048,,,,,,,,,,
acc,1778673122.0,121.0,0.008101340433755454,0.11071708196724796,-9.806567538496596,,,,,,,,,,
acc,1778673122.0,121.0,0.008023244716578958,0.11089242043253619,-9.806511757125902,,,,,,,,,,
acc,1778673122.0,121.0,0.00832213410849043,0.11106588318237604,-9.806456572486669,,,,,,,,,,
acc,1778673122.0,121.0,0.008242079711071128,0.11123749538942612,-9.806401976570584,,,,,,,,,,
acc,1778673122.0,121.0,0.008162877040155466,0.11140728175467608,-9.80634796151939,,,,,,,,,,
acc,1778673122.0,121.0,0.008084514787566846,0.11157526651940691,-9.806294519621074,,,,,,,,,,
acc,1778673122.0,121.0,0.008006981854168848,0.11207863011241903,-9.80586702695333,,,,,,,,,,
acc,1778673122.0,121.0,0.00793026734462512,0.1122398523371409,-9.805818297972753,,,,,,,,,,
acc,1778673122.0,121.0,0.007854360562319905,0.11239937705270658,-9.806106597164385,,,,,,,,,,
acc,1778673122.0,121.0,0.0077792510044336,0.11255722633170645,-9.806055669626067,,,,,,,,,,
acc,1778673122.0,121.0,0.0077049283571678645,0.11271342184948617,-9.806005275647285,,,,,,,,,,
acc,1778673122.0,121.0,0.00763138249111511,0.11286798489387821,-9.80595540835986,,,,,,,,,,
acc,1778673122.0,121.0,0.007223327412812057,0.1130209363746404,-9.805906061017595,,,,,,,,,,
acc,1778673122.0,121.0,0.0071545001061631315,0.11317229683261176,-9.805857226993316,,,,,,,,,,
acc,1778673122.0,121.0,0.007086387099831713,0.11332208644859539,-9.805808899776011,,,,,,,,,,
acc,1778673122.0,121.0,0.0070189793769102685,0.1134703250519776,-9.805761072968048,,,,,,,,,,
acc,1778673122.0,121.0,0.0069522680764855125,0.11361703212909252,-9.805713740282473,,,,,,,,,,
acc,1778673122.0,121.0,0.007257204485879735,0.11376222683134053,-9.805666895540393,,,,,,,,,,
acc,1778673122.0,121.0,0.007188339967682304,0.11390592798306913,-9.805620532668435,,,,,,,,,,
acc,1778673122.0,121.0,0.006786843855896553,0.11404815408922406,-9.805907993643434,,,,,,,,,,
acc,1778673122.0,121.0,0.006722542546721471,0.11381883412423616,-9.805859418427854,,,,,,,,,,
acc,1778673122.0,121.0,0.0066588985351558475,0.1139616681416955,-9.806144179971593,,,,,,,,,,
acc,1778673122.0,121.0,0.006595903786136347,0.11373350931880602,-9.806093443025464,,,,,,,,,,
acc,1778673122.0,121.0,0.0065335503974987405,0.11387694018722369,-9.806043222640916,,,,,,,,,,
acc,1778673122.0,121.0,0.00613972612453109,0.11364991074924069,-9.80599351255803,,,,,,,,,,
acc,1778673122.0,121.0,0.006081767321517992,0.11342518377222623,-9.805944306619129,,,,,,,,,,
acc,1778673122.0,121.0,0.0060243952054722,0.11320273159009644,-9.805895598766481,,,,,,,,,,
acc,1778673122.0,121.0,0.005967602756193952,0.11298252698302987,-9.805847383040069,,,,,,,,,,
acc,1778673122.0,121.0,0.00591138306602205,0.11276454316755724,-9.805799653575418,,,,,,,,,,
acc,1778673122.0,121.0,0.005524747152068435,0.11254875378692748,-9.806083396201439,,,,,,,,,,
acc,1778673122.0,121.0,0.005840287135779801,0.112335132901741,-9.806033507857315,,,,,,,,,,
acc,1778673122.0,121.0,0.005785372526261221,0.11212365498084172,-9.805580094315683,,,,,,,,,,
acc,1778673122.0,121.0,0.005731007855692316,0.11191429489245946,-9.805534997620471,,,,,,,,,,
acc,1778673122.0,121.0,0.005677186699561701,0.11170702789559504,-9.805490351782494,,,,,,,,,,
acc,1778673122.0,121.0,0.005623902732653633,0.11150182963163995,-9.805446151554843,,,,,,,,,,
acc,1778673122.0,121.0,0.005571149726930971,0.11129867611622357,-9.805402391771226,,,,,,,,,,
acc,1778673122.0,121.0,0.005518921549475322,0.11109754373128067,-9.80535906734425,,,,,,,,,,
acc,1778673122.0,121.0,0.005833202532827354,0.11089840921733214,-9.805316173263764,,,,,,,,,,
acc,1778673122.0,121.0,0.006144366561854253,0.11106703748341785,-9.805273704595239,,,,,,,,,,
acc,1778673122.0,121.0,0.006452449248858291,0.11086840684897188,-9.805231656478195,,,,,,,,,,
acc,1778673122.0,121.0,0.006757485674839613,0.11103713419483702,-9.805190024124665,,,,,,,,,,
acc,1778673122.0,121.0,0.0070595104004334795,0.11083899314014596,-9.805148802817698,,,,,,,,,,
acc,1778673122.0,121.0,0.00666502781141016,0.11100782017964811,-9.805107987909917,,,,,,,,,,
acc,1778673122.0,121.0,0.006967608199760958,0.11117498512856028,-9.805067574822097,,,,,,,,,,
acc,1778673122.0,121.0,0.007267213872098761,0.11134050665222255,-9.805027559041783,,,,,,,,,,
acc,1778673122.0,121.0,0.007199406447354826,0.11113993146856456,-9.804987936121952,,,,,,,,,,
acc,1778673122.0,121.0,0.007496561205668825,0.11130562017158636,-9.805276580507924,,,,,,,,,,
acc,1778673122.0,121.0,0.007790806422455936,0.11146968656115536,-9.805562398680268,,,,,,,,,,
acc,1778673122.0,121.0,0.007718215936938938,0.11163214862085999,-9.805517848214908,,,,,,,,,,
acc,1778673122.0,121.0,0.007646334368700072,0.1117930240792305,-9.805473732828531,,,,,,,,,,
acc,1778673122.0,121.0,0.007938785815592578,0.11195233041471936,-9.805757327615838,,,,,,,,,,
acc,1778673122.0,121.0,0.007864915155871812,0.11211008486055575,-9.80603815975209,,,,,,,,,,
acc,1778673122.0,121.0,0.007791763232457024,0.11226630440947798,-9.806316259487508,,,,,,,,,,
acc,1778673122.0,121.0,0.0077193221987205485,0.11242100581834735,-9.806264797461864,,,,,,,,,,
acc,1778673122.0,121.0,0.0076475843163807036,0.11257420561264697,-9.80621383495415,,,,,,,,,,
acc,1778673122.0,121.0,0.007576541953447452,0.11272592009086886,-9.806489958084503,,,,,,,,,,
acc,1778673122.0,121.0,0.007506187582218827,0.11320261746092776,-9.806400675357029,,,,,,,,,,
acc,1778673122.0,121.0,0.007436513777326645,0.11334837912744491,-9.806348512503371,,,,,,,,,,
acc,1778673122.0,121.0,0.00736751321383007,0.11349273233366708,-9.806296853686954,,,,,,,,,,
acc,1778673122.0,121.0,0.007299178665355653,0.11363569219758929,-9.80624569349759,,,,,,,,,,
acc,1778673122.0,121.0,0.007231503002282506,0.11377727363479458,-9.80652099111981,,,,,,,,,,
acc,1778673122.0,121.0,0.007164479189971304,0.11391749136215899,-9.806467791102142,,,,,,,,,,
acc,1778673122.0,121.0,0.007460009734702778,0.11405635990146756,-9.806415102980008,,,,,,,,,,
acc,1778673122.0,121.0,0.007752699526126557,0.11419389358294364,-9.806362921316378,,,,,,,,,,
acc,1778673123.0,122.0,0.00768092066828723,0.11396844855647219,-9.806311240745593,,,,,,,,,,
acc,1778673123.0,122.0,0.007971366150086028,0.11410670206522022,-9.8065854492352,,,,,,,,,,
acc,1778673123.0,122.0,0.008259027913268342,0.11388221479071367,-9.806857029626507,,,,,,,,,,
acc,1778673123.0,122.0,0.008182637313760349,0.11365987704609672,-9.806800830331545,,,,,,,,,,
acc,1778673123.0,122.0,0.008106977499545896,0.11380084856737424,-9.806347860749813,,,,,,,,,,
acc,1778673123.0,122.0,0.008393109605880503,0.11357940393616386,-9.806296403588314,,,,,,,,,,
acc,1778673123.0,122.0,0.008315552011236772,0.11336007392337619,-9.80624543780139,,,,,,,,,,
acc,1778673123.0,122.0,0.008238734379270977,0.11314283649770855,-9.806519732558012,,,,,,,,,,
acc,1778673123.0,122.0,0.00816264901797303,0.11292766990644058,-9.806466734910561,,,,,,,,,,
acc,1778673123.0,122.0,0.008087288332161453,0.11271455267067962,-9.806414242039526,,,,,,,,,,
acc,1778673123.0,122.0,0.00837317664417787,0.11250346358071427,-9.806362248720747,,,,,,,,,,
acc,1778673123.0,122.0,0.008656346505766424,0.1126548119694647,-9.806310749795244,,,,,,,,,,
acc,1778673123.0,122.0,0.008936825931462035,0.11244439177763887,-9.806259740168134,,,,,,,,,,
acc,1778673123.0,122.0,0.008854409839655335,0.11223596923725394,-9.806209214807547,,,,,,,,,,
acc,1778673123.0,122.0,0.008772775568206723,0.11202952384698114,-9.806159168743596,,,,,,,,,,
acc,1778673123.0,122.0,0.00869191510974603,0.11182503535693486,-9.806433646293955,,,,,,,,,,
acc,1778673123.0,122.0,0.008971770401158728,0.11162248376455054,-9.806381558096588,,,,,,,,,,
acc,1778673123.0,122.0,0.008889117895351354,0.11178170829462075,-9.80665384705148,,,,,,,,,,
acc,1778673123.0,122.0,0.008807247124273674,0.11193942686496525,-9.80692356067329,,,,,,,,,,
acc,1778673123.0,122.0,0.00840243429769151,0.11173597255281077,-9.807190725133694,,,,,,,,,,
acc,1778673123.0,122.0,0.008325083316153201,0.1115344398177991,-9.807455366289897,,,,,,,,,,
acc,1778673123.0,122.0,0.00792489985273774,0.11133480920450049,-9.807393937944182,,,,,,,,,,
acc,1778673123.0,122.0,0.007528490884201323,0.11113706148941353,-9.807656586176602,,,,,,,,,,
acc,1778673123.0,122.0,0.007459233135872673,0.1109411776773105,-9.807593334772788,,,,,,,,,,
acc,1778673123.0,122.0,0.007749895671373837,0.1107471389976604,-9.807530679167149,,,,,,,,,,
acc,1778673123.0,122.0,0.007678632513478142,0.11091411644273692,-9.807468613370055,,,,,,,,,,
acc,1778673123.0,122.0,0.0072848365830512005,0.11072041042445462,-9.80773034384231,,,,,,,,,,
acc,1778673123.0,122.0,0.007576915332103441,0.11052852558686009,-9.807989613583166,,,,,,,,,,
acc,1778673123.0,122.0,0.007507286746449195,0.1103384437133779,-9.807923369531817,,,,,,,,,,
acc,1778673123.0,122.0,0.0074383120062764835,0.11050903695348795,-9.8081807597079,,,,,,,,,,
acc,1778673123.0,122.0,0.007369984592484299,0.11067802917988795,-9.807718078513046,,,,,,,,,,
acc,1778673123.0,122.0,0.007302298061125658,0.11048668777995485,-9.807654367825945,,,,,,,,,,
acc,1778673123.0,122.0,0.007235246042280626,0.11065581975180161,-9.807591254380679,,,,,,,,,,
acc,1778673123.0,122.0,0.007168822238952224,0.11046475503692924,-9.807851494135486,,,,,,,,,,
acc,1778673123.0,122.0,0.007103020425984631,0.11027547944590986,-9.807786594865119,,,,,,,,,,
acc,1778673123.0,122.0,0.0070378344490031235,0.1104464558209108,-9.807722302983887,,,,,,,,,,
acc,1778673123.0,122.0,0.0069732582233752085,0.1106158328783757,-9.807658612490613,,,,,,,,,,
acc,1778673123.0,122.0,0.0069092857331924185,0.11078362639743793,-9.807595517451903,,,,,,,,,,
acc,1778673123.0,122.0,0.006845911030272248,0.11094985197959228,-9.80753301200116,,,,,,,,,,
acc,1778673123.0,122.0,0.00678312823317974,0.11111452505126139,-9.807471090337621,,,,,,,,,,
acc,1778673123.0,122.0,0.006720931526268229,0.11127766086631165,-9.807409746725407,,,,,,,,,,
acc,1778673123.0,122.0,0.006659315158738773,0.11143927450852031,-9.807348975492594,,,,,,,,,,
acc,1778673123.0,122.0,0.006956330002885138,0.11159938089399467,-9.807288771030315,,,,,,,,,,
acc,1778673123.0,122.0,0.006892575754731343,0.11175799477354464,-9.807229127791851,,,,,,,,,,
acc,1778673123.0,122.0,0.0071873606782140486,0.11191513073500983,-9.80717004029177,,,,,,,,,,
acc,1778673123.0,122.0,0.007121509180216223,0.1120708032055422,-9.80743361593879,,,,,,,,,,
acc,1778673123.0,122.0,0.007056270722240129,0.11222502645384548,-9.807694737846331,,,,,,,,,,
acc,1778673123.0,122.0,0.007349424822929032,0.11237781459237217,-9.807953429908784,,,,,,,,,,
acc,1778673123.0,122.0,0.007282117961045395,0.11252918157947947,-9.807887743986297,,,,,,,,,,
acc,1778673123.0,122.0,0.007215436889369885,0.11267914122154475,-9.808144595240531,,,,,,,,,,
acc,1778673123.0,122.0,0.0075070099583620575,0.11282770717504187,-9.808077177414136,,,,,,,,,,
acc,1778673123.0,122.0,0.0074382884168587675,0.112974892948579,-9.808010385900369,,,,,,,,,,
acc,1778673123.0,122.0,0.007727743292978566,0.11312071190489906,-9.808266010040448,,,,,,,,,,
acc,1778673123.0,122.0,0.0076570197690113435,0.11290768579496344,-9.808519261289995,,,,,,,,,,
acc,1778673123.0,122.0,0.007944398044080831,0.11269663639478068,-9.808770162573074,,,,,,,,,,
acc,1778673123.0,122.0,0.007871710228353628,0.11248754462798757,-9.808697065181214,,,,,,,,,,
acc,1778673123.0,122.0,0.0077996963956013365,0.11263774780682821,-9.808624645570038,,,,,,,,,,
acc,1778673123.0,122.0,0.007728350054967338,0.11242924603793006,-9.808552897212119,,,,,,,,,,
acc,1778673123.0,122.0,0.007657664784594273,0.11222267617356332,-9.808481813649411,,,,,,,,,,
acc,1778673123.0,122.0,0.007587634230721016,0.11201801964556568,-9.808411388492354,,,,,,,,,,
acc,1778673123.0,122.0,0.007518252106795559,0.111815258082186,-9.808341615418973,,,,,,,,,,
acc,1778673123.0,122.0,0.007128078382056704,0.11197151995212892,-9.808272488174001,,,,,,,,,,
acc,1778673123.0,122.0,0.007062913088828002,0.11176922892096768,-9.808204000568027,,,,,,,,,,
acc,1778673123.0,122.0,0.006998350578588883,0.11156880909434626,-9.808136146476642,,,,,,,,,,
acc,1778673123.0,122.0,0.006934385085082066,0.11137024257221277,-9.808068919839606,,,,,,,,,,
acc,1778673123.0,122.0,0.006549715972581504,0.11117351164164546,-9.80832361872891,,,,,,,,,,
acc,1778673123.0,122.0,0.006168601729836498,0.11097859877447946,-9.808254692938808,,,,,,,,,,
acc,1778673123.0,122.0,0.006112237662924052,0.11078548662497391,-9.80818640392497,,,,,,,,,,
acc,1778673123.0,122.0,0.006056394165262897,0.11059415802751826,-9.808118745617234,,,,,,,,,,
acc,1778673123.0,122.0,0.005679900395036471,0.11040459599437728,-9.808051712008332,,,,,,,,,,
acc,1778673123.0,122.0,0.005628016925861292,0.11021678371347358,-9.807985297153119,,,,,,,,,,
acc,1778673123.0,122.0,0.0055766122323419745,0.11003070454620702,-9.808240609129221,,,,,,,,,,
acc,1778673123.0,122.0,0.005525681765367236,0.10984634202531006,-9.808493565761717,,,,,,,,,,
acc,1778673123.0,122.0,0.0054752210225740205,0.10966367985273849,-9.808423134308422,,,,,,,,,,
acc,1778673123.0,122.0,0.005781909456711387,0.10948270189759651,-9.807960992656154,,,,,,,,,,
acc,1778673123.0,122.0,0.005729118163490574,0.109660044872805,-9.807895436268515,,,,,,,,,,
acc,1778673123.0,122.0,0.006033435390576797,0.10983575352366995,-9.807830484023217,,,,,,,,,,
acc,1778673123.0,122.0,0.006334948855519511,0.11000984332019563,-9.807766130201637,,,,,,,,,,
acc,1778673123.0,122.0,0.0062771227260750425,0.1101823295749532,-9.80770236914335,,,,,,,,,,
acc,1778673123.0,122.0,0.006219829103650231,0.11035322744497303,-9.807639195245423,,,,,,,,,,
acc,1778673123.0,122.0,0.006163062958361556,0.11052255193360702,-9.80757660296174,,,,,,,,,,
acc,1778673123.0,122.0,0.006106819311231767,0.11069031789236171,-9.807514586802307,,,,,,,,,,
acc,1778673123.0,122.0,0.006407542627958759,0.11085654002270252,-9.807453141332601,,,,,,,,,,
acc,1778673123.0,122.0,0.006349076807314981,0.11102123287783003,-9.807392261172904,,,,,,,,,,
acc,1778673123.0,122.0,0.006291148763684315,0.1111844108644286,-9.807331940997656,,,,,,,,,,
acc,1778673123.0,122.0,0.006590123383082095,0.11134608824438813,-9.807592919436727,,,,,,,,,,
acc,1778673123.0,122.0,0.006886349181718468,0.11150627913649938,-9.807530777470028,,,,,,,,,,
acc,1778673123.0,122.0,0.006823532645407661,0.11166499751812337,-9.807469206726177,,,,,,,,,,
acc,1778673123.0,122.0,0.007117588167459736,0.11182225722683552,-9.80740820183724,,,,,,,,,,
acc,1778673123.0,122.0,0.007408941774055052,0.11197807196204494,-9.807347757488882,,,,,,,,,,
acc,1778673123.0,122.0,0.007341371953349868,0.1121324552865894,-9.807287868419746,,,,,,,,,,
acc,1778673123.0,122.0,0.0072744227491892315,0.11228542062830639,-9.807549141587838,,,,,,,,,,
acc,1778673123.0,122.0,0.0072080883429446315,0.11243698128158096,-9.80780801547126,,,,,,,,,,
acc,1778673123.0,122.0,0.007142362973729055,0.11258715040887056,-9.807743941175225,,,,,,,,,,
acc,1778673123.0,122.0,0.007077240937739406,0.11273594104220747,-9.80768045505621,,,,,,,,,,
acc,1778673123.0,122.0,0.007012716587608558,0.11252723151373775,-9.807617551608711,,,,,,,,,,
acc,1778673123.0,122.0,0.00694878433176684,0.11267655048366251,-9.807555225381625,,,,,,,,,,
acc,1778673123.0,122.0,0.0068854386338127824,0.11246840704771692,-9.807493470977631,,,,,,,,,,
acc,1778673123.0,122.0,0.006822674011892934,0.1122621729310497,-9.80743228305258,,,,,,,,,,
acc,1778673123.0,122.0,0.006760485038090575,0.1120578302984286,-9.807371656314913,,,,,,,,,,
acc,1778673123.0,122.0,0.006698866337823166,0.11221139358760775,-9.80731158552506,,,,,,,,,,
acc,1778673123.0,122.0,0.006637812589248348,0.112007536224958,-9.80686044422789,,,,,,,,,,
acc,1778673123.0,122.0,0.0065773185226783454,0.11180554763040337,-9.806805038881794,,,,,,,,,,
acc,1778673123.0,122.0,0.006517378920002604,0.11160541038076707,-9.80675014135846,,,,,,,,,,
acc,1778673123.0,122.0,0.006457988614118513,0.1114071072231869,-9.806695746925438,,,,,,,,,,
acc,1778673123.0,122.0,0.0063991424883700545,0.11121062107324092,-9.806641850896483,,,,,,,,,,
acc,1778673123.0,122.0,0.006340835475994235,0.1110159350130991,-9.806588448631043,,,,,,,,,,
acc,1778673123.0,122.0,0.006283062559575158,0.11082303228970047,-9.806535535533765,,,,,,,,,,
acc,1778673123.0,122.0,0.006225818770505587,0.11063189631295531,-9.806483107053996,,,,,,,,,,
acc,1778673123.0,122.0,0.006169099188455868,0.11044251065397186,-9.806431158685303,,,,,,,,,,
acc,1778673123.0,122.0,0.006112898940850077,0.1102548590433072,-9.806699964833056,,,,,,,,,,
acc,1778673123.0,122.0,0.006057213202349252,0.11006892536924179,-9.80664604574637,,,,,,,,,,
acc,1778673123.0,122.0,0.006002037194341593,0.11024051493459908,-9.80659262021878,,,,,,,,,,
acc,1778673123.0,122.0,0.005627139241172622,0.11005472833684041,-9.806539683668031,,,,,,,,,,
acc,1778673123.0,122.0,0.0055758852821004325,0.11022643233506615,-9.806487231556153,,,,,,,,,,
acc,1778673123.0,122.0,0.005525100304449457,0.11039656521592704,-9.806435259388975,,,,,,,,,,
acc,1778673123.0,122.0,0.0054747799590539655,0.11020938088922877,-9.80638376271566,,,,,,,,,,
acc,1778673123.0,122.0,0.005424919938642407,0.11037965509521737,-9.806332737128248,,,,,,,,,,
acc,1778673123.0,122.0,0.005375515977392175,0.11019263985443095,-9.806282178261194,,,,,,,,,,
acc,1778673123.0,122.0,0.00532656385049018,0.11000733500097569,-9.806232081790922,,,,,,,,,,
acc,1778673123.0,122.0,0.005278059373699131,0.11017942903449462,-9.806182443435382,,,,,,,,,,
acc,1778673123.0,122.0,0.005229998402929426,0.11034994950727953,-9.806453391682274,,,,,,,,,,
acc,1778673123.0,122.0,0.005538054520380502,0.11051891098162837,-9.806401741916495,,,,,,,,,,
acc,1778673123.0,122.0,0.005487629795076622,0.11068632788037455,-9.806350564311417,,,,,,,,,,
acc,1778673123.0,122.0,0.005793317973852651,0.11049656249647256,-9.806299854500317,,,,,,,,,,
acc,1778673123.0,122.0,0.0057405727824707065,0.11066417099107619,-9.806249608158213,,,,,,,,,,
acc,1778673123.0,122.0,0.005688309612605617,0.11083024776499228,-9.806199821001439,,,,,,,,,,
acc,1778673123.0,122.0,0.005992139180621712,0.11099480697104289,-9.806150488787203,,,,,,,,,,
acc,1778673123.0,122.0,0.005937589370136454,0.11115786262710212,-9.806101607313172,,,,,,,,,,
acc,1778673123.0,122.0,0.0062391296443151155,0.11131942861749469,-9.806373215890057,,,,,,,,,,
acc,1778673123.0,122.0,0.0061823350183068376,0.11147951869437703,-9.806642343308825,,,,,,,,,,
acc,1778673123.0,122.0,0.0061260591648412,0.11163814647910124,-9.806197856033938,,,,,,,,,,
acc,1778673124.0,123.0,0.006425855414935223,0.11179532546356226,-9.80614854962018,,,,,,,,,,
acc,1778673124.0,123.0,0.006367366457126547,0.11195106901152843,-9.805708584163632,,,,,,,,,,
acc,1778673124.0,123.0,0.006664948319188205,0.11210539035995584,-9.805663733999799,,,,,,,,,,
acc,1778673124.0,123.0,0.0069598130000957025,0.11225830262028653,-9.805619293356958,,,,,,,,,,
acc,1778673124.0,123.0,0.006896469457011402,0.11240981877973101,-9.80557525846066,,,,,,,,,,
acc,1778673124.0,123.0,0.007189210246499946,0.11255995170253524,-9.80553162557219,,,,,,,,,,
acc,1778673124.0,123.0,0.007123782544512233,0.11270871413123232,-9.805488390988204,,,,,,,,,,
acc,1778673124.0,123.0,0.0074144385730753,0.11285611868787916,-9.805054508587592,,,,,,,,,,
acc,1778673124.0,123.0,0.007702441768568858,0.11300217787527837,-9.80501561825691,,,,,,,,,,
acc,1778673124.0,123.0,0.007987816551566865,0.11314690407818555,-9.804977082852258,,,,,,,,,,
acc,1778673124.0,123.0,0.007915128579942778,0.11329030956450226,-9.804938899107134,,,,,,,,,,
acc,1778673124.0,123.0,0.008198553419563355,0.11343240648645492,-9.80522097929042,,,,,,,,,,
acc,1778673124.0,123.0,0.008123951513975498,0.11321776617326608,-9.805180578149038,,,,,,,,,,
acc,1778673124.0,123.0,0.008050030244110199,0.113005084146042,-9.805140545610305,,,,,,,,,,
acc,1778673124.0,123.0,0.007976783351406398,0.11279434239801067,-9.80542077037578,,,,,,,,,,
acc,1778673124.0,123.0,0.007904204636166616,0.11258552309175898,-9.805378554289666,,,,,,,,,,
acc,1778673124.0,123.0,0.007512419875322404,0.11273401551524803,-9.805656600463164,,,,,,,,,,
acc,1778673124.0,123.0,0.007444069413242668,0.11252575464013123,-9.805932110576432,,,,,,,,,,
acc,1778673124.0,123.0,0.007376342334107698,0.11231939318564246,-9.805885245124987,,,,,,,,,,
acc,1778673124.0,123.0,0.007309232911668437,0.11247029691992168,-9.805838807076587,,,,,,,,,,
acc,1778673124.0,123.0,0.007242735473375598,0.11226444894635033,-9.805792792505969,,,,,,,,,,
acc,1778673124.0,123.0,0.007176844399846571,0.11206047802189667,-9.805747197524662,,,,,,,,,,
acc,1778673124.0,123.0,0.00711155412433837,0.11185836691427638,-9.805702018280616,,,,,,,,,,
acc,1778673124.0,123.0,0.006727039145917595,0.11201345207129301,-9.805657250957852,,,,,,,,,,
acc,1778673124.0,123.0,0.0066658433717954775,0.11181177689861481,-9.805612891776091,,,,,,,,,,
acc,1778673124.0,123.0,0.006605205482886709,0.11161194027767242,-9.805568936990419,,,,,,,,,,
acc,1778673124.0,123.0,0.0065451203611777715,0.11141392534167603,-9.80552538289092,,,,,,,,,,
acc,1778673124.0,123.0,0.0061657877933176805,0.11121771538142695,-9.805482225802349,,,,,,,,,,
acc,1778673124.0,123.0,0.005789912781500472,0.11102329384376854,-9.805439462083779,,,,,,,,,,
acc,1778673124.0,123.0,0.005737247008503872,0.11083064433005424,-9.805397088128268,,,,,,,,,,
acc,1778673124.0,123.0,0.0053652835563103496,0.11099505709222059,-9.805355100362526,,,,,,,,,,
acc,1778673124.0,123.0,0.004996709942534274,0.11080267124302036,-9.805313495246587,,,,,,,,,,
acc,1778673124.0,123.0,0.004276191872422672,0.1106120385848383,-9.80523674167947,,,,,,,,,,
acc,1778673124.0,123.0,0.0032069513525591646,0.11042314305221027,-9.80519621451585,,,,,,,,,,
acc,1778673124.0,123.0,0.002502735925105969,0.11023596872928663,-9.804800774425418,,,,,,,,,,
acc,1778673124.0,123.0,0.0014496605592631913,0.1104057762575514,-9.80437340247699,,,,,,,,,,
acc,1778673124.0,123.0,0.0004061798429076213,0.11057403665655377,-9.804340729408677,,,,,,,,,,
acc,1778673124.0,123.0,-0.0006277940935109901,0.11074076409518578,-9.803917555102043,,,,,,,,,,
acc,1778673124.0,123.0,-0.0020076170297536433,0.11090597261061076,-9.803498236005327,,,,,,,,,,
acc,1778673124.0,123.0,-0.0033748700553377616,0.11106967610954097,-9.803473523762847,,,,,,,,,,
acc,1778673124.0,123.0,-0.0050849171882866445,0.11123188836950135,-9.80341351355791,,,,,,,,,,
acc,1778673124.0,123.0,-0.006779387523976626,0.11139262304007976,-9.803354049985156,,,,,,,,,,
acc,1778673124.0,123.0,-0.008458423621145211,0.1115518936441637,-9.80329512804181,,,,,,,,,,
acc,1778673124.0,123.0,-0.010122166715748664,0.11202942567041749,-9.803272264316304,,,,,,,,,,
acc,1778673124.0,123.0,-0.011770756733722375,0.11250260841978446,-9.803249608829548,,,,,,,,,,
acc,1778673124.0,123.0,-0.013724035618447896,0.11297148168180138,-9.802871935791938,,,,,,,,,,
acc,1778673124.0,123.0,-0.015659525834843487,0.11343608487720773,-9.802817401298586,,,,,,,,,,
acc,1778673124.0,123.0,-0.01793261366067537,0.11389645706149261,-9.802408139859061,,,,,,,,,,
acc,1778673124.0,123.0,-0.020185001917965052,0.11435263692840407,-9.802002605303786,,,,,,,,,,
acc,1778673124.0,123.0,-0.022416879888155813,0.1148046628134215,-9.801991496788519,,,,,,,,,,
acc,1778673124.0,123.0,-0.02533884621239144,0.1149328899702472,-9.801589761039049,,,,,,,,,,
acc,1778673124.0,123.0,-0.028234207038123803,0.1153796284054156,-9.801227210172875,,,,,,,,,,
acc,1778673124.0,123.0,-0.03145839799945498,0.11582229928212305,-9.800867960336404,,,,,,,,,,
acc,1778673124.0,123.0,-0.0346532337086182,0.11594126853140205,-9.800476455257783,,,,,,,,,,
acc,1778673124.0,123.0,-0.03813865910178661,0.11605915464058418,-9.800479224431585,,,,,,,,,,
acc,1778673124.0,123.0,-0.041592352978349234,0.11617596750773439,-9.800481968394667,,,,,,,,,,
acc,1778673124.0,123.0,-0.04501460528125147,0.11629171693947363,-9.800484687377388,,,,,,,,,,
acc,1778673124.0,123.0,-0.04876087557473041,0.11640641265185042,-9.800096684804883,,,,,,,,,,
acc,1778673124.0,123.0,-0.05247304298329915,0.11652006427120336,-9.800102906892693,,,,,,,,,,
acc,1778673124.0,123.0,-0.056506592867484065,0.11663268133501473,-9.800109072341668,,,,,,,,,,
acc,1778673124.0,123.0,-0.06050342703263617,0.11638911221756072,-9.800434837547499,,,,,,,,,,
acc,1778673124.0,123.0,-0.06481903827197326,0.11614776013993605,-9.800437984907601,,,,,,,,,,
acc,1778673124.0,123.0,-0.06909536869571282,0.11590860485575025,-9.800441103620344,,,,,,,,,,
acc,1778673124.0,123.0,-0.0733327769910705,0.11567162630529451,-9.800444193947314,,,,,,,,,,
acc,1778673124.0,123.0,-0.07788677466615035,0.11543680461377227,-9.800411743262526,,,,,,,,,,
acc,1778673124.0,123.0,-0.08275446902299748,0.11520412008954778,-9.800415100468959,,,,,,,,,,
acc,1778673124.0,123.0,-0.08789749985513992,0.11497355322241253,-9.800382914900768,,,,,,,,,,
acc,1778673124.0,123.0,-0.09334886251573729,0.11474508468186932,-9.800386534142257,,,,,,,,,,
acc,1778673124.0,123.0,-0.09910574912711041,0.11451869531543378,-9.8003901204469,,,,,,,,,,
acc,1778673124.0,123.0,-0.10481024667883233,0.11393922618691131,-9.80035816284674,,,,,,,,,,
acc,1778673124.0,123.0,-0.11081797017652495,0.1137201671301669,-9.800326496060888,,,,,,,,,,
acc,1778673124.0,123.0,-0.11677102476124947,0.11314796756544325,-9.799939983540153,,,,,,,,,,
acc,1778673124.0,123.0,-0.12334465170039777,0.11258097475539415,-9.799912119051978,,,,,,,,,,
acc,1778673124.0,123.0,-0.13021358206967873,0.11201914119366754,-9.799884508111663,,,,,,,,,,
acc,1778673124.0,123.0,-0.1366648952528957,0.11146241981079526,-9.800247783402998,,,,,,,,,,
acc,1778673124.0,123.0,-0.14305750869882897,0.11091076397008263,-9.800217121370542,,,,,,,,,,
acc,1778673124.0,123.0,-0.14974706844548163,0.1103641274635394,-9.800186738321786,,,,,,,,,,
acc,1778673124.0,123.0,-0.15637576349466417,0.10982246450785105,-9.800156631712008,,,,,,,,,,
acc,1778673124.0,123.0,-0.16329926331131842,0.10928572974039065,-9.800126799019873,,,,,,,,,,
acc,1778673124.0,123.0,-0.17015977274707164,0.10875387821527017,-9.800487857929273,,,,,,,,,,
acc,1778673124.0,123.0,-0.1769578662469572,0.10858197458598348,-9.800810123784785,,,,,,,,,,
acc,1778673124.0,123.0,-0.18440431725715578,0.10805652819452198,-9.801164965715202,,,,,,,,,,
acc,1778673124.0,123.0,-0.19178302438095818,0.10789096626317247,-9.801481071785352,,,,,,,,,,
acc,1778673124.0,123.0,-0.19941419056424758,0.10737180868350123,-9.801794302148199,,,,,,,,,,
acc,1778673124.0,123.0,-0.20697593524797228,0.10685737393345071,-9.802104683022387,,,,,,,,,,
acc,1778673124.0,123.0,-0.21482397935582026,0.10634761895621099,-9.802447747370481,,,,,,,,,,
acc,1778673124.0,123.0,-0.22260063180762615,0.10619759592172963,-9.802752184193603,,,,,,,,,,
acc,1778673124.0,123.0,-0.23066163597531325,0.10569384499397708,-9.80305385168549,,,,,,,,,,
acc,1778673124.0,123.0,-0.23864931402059625,0.10554976677226931,-9.803743362696231,,,,,,,,,,
acc,1778673124.0,123.0,-0.2465643342858933,0.10540699911962483,-9.80407152262128,,,,,,,,,,
acc,1778673124.0,123.0,-0.25476244508520696,0.10491044399186056,-9.804361191698298,,,,,,,,,,
acc,1778673124.0,123.0,-0.26288598663287766,0.10477348949750248,-9.804683731646808,,,,,,,,,,
acc,1778673124.0,123.0,-0.27129071136951577,0.10463778070673033,-9.805322905260308,,,,,,,,,,
acc,1778673124.0,123.0,-0.27961899015617436,0.10450330626779672,-9.805956265211181,,,,,,,,,,
acc,1778673124.0,123.0,-0.2878715195879927,0.10437005493297054,-9.80622879558254,,,,,,,,,,
acc,1778673124.0,123.0,-0.2963685519549189,0.10423801555756841,-9.806498847211358,,,,,,,,,,
acc,1778673124.0,123.0,-0.3051433767492627,0.10410717709899567,-9.806766442682347,,,,,,,,,,
acc,1778673124.0,123.0,-0.3138383945394022,0.10397752861579658,-9.80703160437336,,,,,,,,,,
acc,1778673124.0,123.0,-0.3231644641906452,0.10384905926671385,-9.807649415804725,,,,,,,,,,
acc,1778673124.0,123.0,-0.33240571589561707,0.10407681785545,-9.80826160841715,,,,,,,,,,
acc,1778673124.0,123.0,-0.34191798009287294,0.10394744729935089,-9.808513175619531,,,,,,,,,,
acc,1778673124.0,123.0,-0.3509886795025512,0.10417430933594682,-9.808762454958236,,,,,,,,,,
acc,1778673124.0,123.0,-0.3603319414828887,0.1043991082185837,-9.808689907465192,,,,,,,,,,
acc,1778673124.0,123.0,-0.3695902341438247,0.10426681008034579,-9.809292630691774,,,,,,,,,,
acc,1778673124.0,123.0,-0.3790838791226178,0.10413571506851738,-9.809570324989801,,,,,,,,,,
acc,1778673124.0,123.0,-0.3884911895695409,0.10400581222539781,-9.810200543355494,,,,,,,,,,
acc,1778673124.0,123.0,-0.39816800866422747,0.10352203378983828,-9.810434479859733,,,,,,,,,,
acc,1778673124.0,123.0,-0.40811188515793195,0.1033977100299801,-9.81070179182691,,,,,,,,,,
acc,1778673124.0,123.0,-0.41796533634583205,0.10327451681654526,-9.810966672974837,,,,,,,,,,
acc,1778673124.0,123.0,-0.42808422889055414,0.1031524438545046,-9.811229145439146,,,,,,,,,,
acc,1778673124.0,123.0,-0.4384661486961491,0.10303148094296505,-9.811453728795485,,,,,,,,,,
acc,1778673124.0,123.0,-0.4483986230705026,0.10291161797429837,-9.811711772177881,,,,,,,,,,
acc,1778673124.0,123.0,-0.4585958192083951,0.10279284493327834,-9.812287005957595,,,,,,,,,,
acc,1778673124.0,123.0,-0.469019836829786,0.10267515189622607,-9.812501971642371,,,,,,,,,,
acc,1778673124.0,123.0,-0.47970410602447894,0.10255852903016366,-9.81275048445999,,,,,,,,,,
acc,1778673124.0,123.0,-0.4906462692086233,0.10279800136752952,-9.813351772376926,,,,,,,,,,
acc,1778673124.0,123.0,-0.5014889386604139,0.10268026280172246,-9.813592559512644,,,,,,,,,,
acc,1778673124.0,123.0,-0.5129430935400227,0.10291862694245854,-9.813795655871036,,,,,,,,,,
acc,1778673124.0,123.0,-0.5242931015855868,0.10315482375868501,-9.813996905577017,,,,,,,,,,
acc,1778673124.0,123.0,-0.535894940485234,0.10338887297967587,-9.814231826586369,,,,,,,,,,
acc,1778673124.0,123.0,-0.5473912919630204,0.10362079415449023,-9.814819640028936,,,,,,,,,,
acc,1778673124.0,123.0,-0.5594576788037936,0.10385060665363512,-9.815047081748794,,,,,,,,,,
acc,1778673124.0,123.0,-0.5714143566469434,0.10407832967071258,-9.815627481558545,,,,,,,,,,
acc,1778673124.0,123.0,-0.5836173489107437,0.10394895736986208,-9.815847579503572,,,,,,,,,,
acc,1778673124.0,123.0,-0.5957093923231022,0.10417578502682671,-9.816420700044539,,,,,,,,,,
acc,1778673124.0,123.0,-0.608046528355188,0.10440055040045382,-9.816243055144238,,,,,,,,,,
acc,1778673124.0,123.0,-0.6206265286130109,0.10494279342020273,-9.816777077422001,,,,,,,,,,
acc,1778673124.0,123.0,-0.6334116756926944,0.1058351360385772,-9.816631694851088,,,,,,,,,,
acc,1778673125.0,124.0,-0.6460805853278548,0.10671936583470938,-9.816807162361997,,,,,,,,,,
acc,1778673125.0,124.0,-0.6586343153256692,0.10724052924136153,-9.81666150722261,,,,,,,,,,
acc,1778673125.0,124.0,-0.6710739138392197,0.10775695452212156,-9.81719172004726,,,,,,,,,,
acc,1778673125.0,124.0,-0.6834004194563474,0.107949168322706,-9.81700707086393,,,,,,,,,,
acc,1778673125.0,124.0,-0.695295345704397,0.10813963465268955,-9.817569639769575,,,,,,,,,,
acc,1778673125.0,124.0,-0.707082132670733,0.10797335508641173,-9.817381556885843,,,,,,,,,,
acc,1778673125.0,124.0,-0.7187617643409309,0.10780858719046588,-9.81794071924947,,,,,,,,,,
acc,1778673125.0,124.0,-0.7303352157235811,0.10764531721012766,-9.818139785789635,,,,,,,,,,
acc,1778673125.0,124.0,-0.7414484323189371,0.10748353151614931,-9.81833704261714,,,,,,,,,,
acc,1778673125.0,124.0,-0.7524606195077123,0.10696819688990636,-9.81885201757829,,,,,,,,,,
acc,1778673125.0,124.0,-0.7637277153246984,0.10610253735480485,-9.819042800391557,,,,,,,,,,
acc,1778673125.0,124.0,-0.7752118941643142,0.10559975622071373,-9.819551358642556,,,,,,,,,,
acc,1778673125.0,124.0,-0.7869466815467605,0.10510154573019737,-9.81934526860073,,,,,,,,,,
acc,1778673125.0,124.0,-0.7985747919990237,0.10425285711587161,-9.820206082695014,,,,,,,,,,
acc,1778673125.0,124.0,-0.8100971960249447,0.10376688994783127,-9.82038455757084,,,,,,,,,,
acc,1778673125.0,124.0,-0.8215148552791102,0.1032853404794292,-9.821271430216035,,,,,,,,,,
acc,1778673125.0,124.0,-0.8328287226480819,0.1020981499054197,-9.821440222155898,,,,,,,,,,
acc,1778673125.0,124.0,-0.8443947554053683,0.10163176844053971,-9.821962483694211,,,,,,,,,,
acc,1778673125.0,124.0,-0.8555006365637252,0.10116962654650248,-9.822124994469707,,,,,,,,,,
acc,1778673125.0,124.0,-0.8658310555029514,0.10035668318465482,-9.822641030447397,,,,,,,,,,
acc,1778673125.0,124.0,-0.8763870718865131,0.09990613140526843,-9.822761875444531,,,,,,,,,,
acc,1778673125.0,124.0,-0.8868471321918855,0.09945967522219414,-9.82323662295223,,,,,,,,,,
acc,1778673125.0,124.0,-0.8968926071619695,0.09901727738116335,-9.823707054946237,,,,,,,,,,
acc,1778673125.0,124.0,-0.9068467680621406,0.09857890096744243,-9.823818211074366,,,,,,,,,,
acc,1778673125.0,124.0,-0.9163554374619918,0.09778951048105766,-9.824318853787627,,,,,,,,,,
acc,1778673125.0,124.0,-0.9257776733918344,0.09700729552639673,-9.824814945676254,,,,,,,,,,
acc,1778673125.0,124.0,-0.9351142620107892,0.09623219083812072,-9.82495153054285,,,,,,,,,,
acc,1778673125.0,124.0,-0.9440109762847811,0.09546413174559498,-9.825441870813261,,,,,,,,,,
acc,1778673125.0,124.0,-0.9528268210798893,0.09505805047275652,-9.826247252474156,,,,,,,,,,
acc,1778673125.0,124.0,-0.9622725414486188,0.09536566083263295,-9.826725815474376,,,,,,,,,,
acc,1778673125.0,124.0,-0.9709223945714525,0.09598997247901163,-9.827164530782703,,,,,,,,,,
acc,1778673125.0,124.0,-0.9798486269239748,0.09628911250180373,-9.826889260295616,,,,,,,,,,
acc,1778673125.0,124.0,-0.9886937231662843,0.09623053958053698,-9.827006992445137,,,,,,,,,,
acc,1778673125.0,124.0,-0.9974584211933725,0.09617249906255915,-9.827123654458795,,,,,,,,,,
acc,1778673125.0,124.0,-1.0064984539888184,0.09611498610598243,-9.827594248791055,,,,,,,,,,
acc,1778673125.0,124.0,-1.0151013162191813,0.09641298807530478,-9.828060565659422,,,,,,,,,,
acc,1778673125.0,124.0,-1.023625983160037,0.09635328975803552,-9.828167652351272,,,,,,,,,,
acc,1778673125.0,124.0,-1.03207316592027,0.09558414283004932,-9.827883268238246,,,,,,,,,,
acc,1778673125.0,124.0,-1.0400885695019042,0.09446698733073768,-9.827636966233602,,,,,,,,,,
acc,1778673125.0,124.0,-1.0483861175681777,0.09335998602321523,-9.827712404873699,,,,,,,,,,
acc,1778673125.0,124.0,-1.0569632454331455,0.09297303467857414,-9.82746765636505,,,,,,,,,,
acc,1778673125.0,124.0,-1.0654624136504518,0.09329958753693478,-9.827935119542472,,,,,,,,,,
acc,1778673125.0,124.0,-1.0738843311393038,0.09326818377131069,-9.827652850694138,,,,,,,,,,
acc,1778673125.0,124.0,-1.0815197061230375,0.09359205347243761,-9.827763641542173,,,,,,,,,,
acc,1778673125.0,124.0,-1.0894406787894584,0.09423247009699262,-9.827837928458928,,,,,,,,,,
acc,1778673125.0,124.0,-1.0976446531222317,0.09486706591083087,-9.82791154017447,,,,,,,,,,
acc,1778673125.0,124.0,-1.1057740610034703,0.0958508895630472,-9.827984482828386,,,,,,,,,,
acc,1778673125.0,124.0,-1.1138295804558374,0.09682577121296633,-9.827737264034258,,,,,,,,,,
acc,1778673125.0,124.0,-1.1218118833291726,0.09779179216807986,-9.827101800624789,,,,,,,,,,
acc,1778673125.0,124.0,-1.1297216353568977,0.0983940386000951,-9.82686260402676,,,,,,,,,,
acc,1778673125.0,124.0,-1.1375594962119,0.09796134419399403,-9.82623509082914,,,,,,,,,,
acc,1778673125.0,124.0,-1.145326119561901,0.09788757605417933,-9.825329289827689,,,,,,,,,,
acc,1778673125.0,124.0,-1.1530221531243123,0.097459485241855,-9.824715712406672,,,,,,,,,,
acc,1778673125.0,124.0,-1.160648238720588,0.09739027801359638,-9.824853193712116,,,,,,,,,,
acc,1778673125.0,124.0,-1.1682050123300725,0.09799616979732848,-9.824634433134888,,,,,,,,,,
acc,1778673125.0,124.0,-1.1763675734060859,0.09966152154151114,-9.82477265277635,,,,,,,,,,
acc,1778673125.0,124.0,-1.1848109386347971,0.10131173733180625,-9.824909616175022,,,,,,,,,,
acc,1778673125.0,124.0,-1.192467591225888,0.10294695478293202,-9.824690343555314,,,,,,,,,,
acc,1778673125.0,124.0,-1.2004096366522374,0.10421232851547861,-9.824437567478823,,,,,,,,,,
acc,1778673125.0,124.0,-1.2079245181684988,0.10511121123170025,-9.823832098329458,,,,,,,,,,
acc,1778673125.0,124.0,-1.215051614967473,0.1053274494817164,-9.823267637437763,,,,,,,,,,
acc,1778673125.0,124.0,-1.2224334208410708,0.10621619662023651,-9.823063287384292,,,,,,,,,,
acc,1778673125.0,124.0,-1.2297481366082084,0.1067418768895738,-9.822470308942941,,,,,,,,,,
acc,1778673125.0,124.0,-1.2369963722128299,0.10726277948731734,-9.822273205085542,,,,,,,,,,
acc,1778673125.0,124.0,-1.244533711718234,0.10848892536358219,-9.822432881368785,,,,,,,,,,
acc,1778673125.0,124.0,-1.2520025481158483,0.10867446731742528,-9.82223611800062,,,,,,,,,,
acc,1778673125.0,124.0,-1.2590485251521408,0.1091778059206045,-9.822360634941752,,,,,,,,,,
acc,1778673125.0,124.0,-1.2660304651723884,0.11038654556250817,-9.822838998932655,,,,,,,,,,
acc,1778673125.0,124.0,-1.2729489503397353,0.1115842996622918,-9.822638545464464,,,,,,,,,,
acc,1778673125.0,124.0,-1.2798045575203765,0.11277116808919456,-9.823114383109296,,,,,,,,,,
acc,1778673125.0,124.0,-1.2865978583318736,0.1143022276166267,-9.82358589616038,,,,,,,,,,
acc,1778673125.0,124.0,-1.2933294191910272,0.11510940819353926,-9.823698146409226,,,,,,,,,,
acc,1778673125.0,124.0,-1.2996803200298632,0.11555426651667379,-9.824164353727774,,,,,,,,,,
acc,1778673125.0,124.0,-1.3059735018838232,0.11599508182741107,-9.824981300965469,,,,,,,,,,
acc,1778673125.0,124.0,-1.3118545036844649,0.11643189087930565,-9.825080870180619,,,,,,,,,,
acc,1778673125.0,124.0,-1.317682057338697,0.11654524950192631,-9.825215030307463,,,,,,,,,,
acc,1778673125.0,124.0,-1.3238116339535662,0.11630260174423712,-9.825702947301876,,,,,,,,,,
acc,1778673125.0,124.0,-1.3298855035557875,0.11606215922559719,-9.825831454105064,,,,,,,,,,
acc,1778673125.0,124.0,-1.3362236524311497,0.11617887753267157,-9.82595879301119,,,,,,,,,,
acc,1778673125.0,124.0,-1.3421847193278023,0.11696899921284093,-9.827114414150758,,,,,,,,,,
acc,1778673125.0,124.0,-1.348091611014764,0.11739695590649958,-9.82719459830898,,,,,,,,,,
acc,1778673125.0,124.0,-1.354264299178893,0.11750154404105516,-9.82766452430754,,,,,,,,,,
acc,1778673125.0,124.0,-1.3600614101029564,0.11792466067321909,-9.828094683906375,,,,,,,,,,
acc,1778673125.0,124.0,-1.3658058361976533,0.11869891548282217,-9.827846471853471,,,,,,,,,,
acc,1778673125.0,124.0,-1.371817534963899,0.11982111706945438,-9.827920003257155,,,,,,,,,,
acc,1778673125.0,124.0,-1.3777745989124544,0.12022315387927761,-9.827992866401337,,,,,,,,,,
acc,1778673125.0,124.0,-1.383358046478766,0.12097651978917828,-9.827355101686218,,,,,,,,,,
acc,1778673125.0,124.0,-1.3888907513991193,0.12278796875909978,-9.827078115628622,,,,,,,,,,
acc,1778673125.0,124.0,-1.3943731749164074,0.12422798190135613,-9.826448664421685,,,,,,,,,,
acc,1778673125.0,124.0,-1.4001252516961264,0.1260098812917905,-9.825540951553643,,,,,,,,,,
acc,1778673125.0,124.0,-1.406180026504956,0.12742061387331408,-9.825280451934256,,,,,,,,,,
acc,1778673125.0,124.0,-1.412179775611334,0.12810857124131647,-9.824383356140464,,,,,,,,,,
acc,1778673125.0,124.0,-1.4177700266729492,0.129145258068091,-9.8237783947666,,,,,,,,,,
acc,1778673125.0,124.0,-1.4233094737867733,0.13052749584490236,-9.823178931254231,,,,,,,,,,
acc,1778673125.0,124.0,-1.429153550860806,0.13189717192799402,-9.822939896839747,,,,,,,,,,
acc,1778673125.0,124.0,-1.4356544703562135,0.13325440049715825,-9.822348053729835,,,,,,,,,,
acc,1778673125.0,124.0,-1.4417413383224065,0.13459929469381066,-9.822116570075947,,,,,,,,,,
acc,1778673125.0,124.0,-1.4474179088011412,0.1359319666304479,-9.821887190121677,,,,,,,,,,
acc,1778673125.0,124.0,-1.4533978717504106,0.13725252740001895,-9.822050370548236,,,,,,,,,,
acc,1778673125.0,124.0,-1.4589685092681293,0.13785113555925846,-9.821821592401202,,,,,,,,,,
acc,1778673125.0,124.0,-1.4644885216309886,0.13915425483755517,-9.821275417596128,,,,,,,,,,
acc,1778673125.0,124.0,-1.4703133489528886,0.14009056069109224,-9.820734206342252,,,,,,,,,,
acc,1778673125.0,124.0,-1.475375290710568,0.1403083979490624,-9.82087236878959,,,,,,,,,,
acc,1778673125.0,124.0,-1.4803912304614517,0.14052425554161935,-9.820689791238244,,,,,,,,,,
acc,1778673125.0,124.0,-1.4853615863251763,0.14109313094480042,-9.820508872916259,,,,,,,,,,
acc,1778673125.0,124.0,-1.4906417428585514,0.14201181585213218,-9.821394527634991,,,,,,,,,,
acc,1778673125.0,124.0,-1.4955189443943973,0.1422121936045278,-9.821881659352195,,,,,,,,,,
acc,1778673125.0,124.0,-1.5003518230427721,0.14209127561037796,-9.82165441516959,,,,,,,,,,
acc,1778673125.0,124.0,-1.5051407816552125,0.14126150782651176,-9.82213918479062,,,,,,,,,,
acc,1778673125.0,124.0,-1.509566744924088,0.14114922913617392,-9.823010022824807,,,,,,,,,,
acc,1778673125.0,124.0,-1.5142719605724786,0.141712423760949,-9.82383744269237,,,,,,,,,,
acc,1778673125.0,124.0,-1.5189344165112812,0.14227050022740861,-9.82430237383426,,,,,,,,,,
acc,1778673125.0,124.0,-1.5239094706021499,0.1428235050539096,-9.825508522453653,,,,,,,,,,
acc,1778673125.0,124.0,-1.5284843437818156,0.14301650615977643,-9.826313236683083,,,,,,,,,,
acc,1778673125.0,124.0,-1.533017641911902,0.14320775333056568,-9.826755668959082,,,,,,,,,,
acc,1778673125.0,124.0,-1.5378647116858621,0.14410721833495804,-9.827584553529146,,,,,,,,,,
acc,1778673125.0,124.0,-1.5426677328675233,0.1449985092941822,-9.827695958981051,,,,,,,,,,
acc,1778673125.0,124.0,-1.5467526636955886,0.14659163764705546,-9.828516298251968,,,,,,,,,,
acc,1778673125.0,124.0,-1.5504454945427937,0.14817028819871123,-9.828619236574058,,,,,,,,,,
acc,1778673125.0,124.0,-1.554459743668018,0.1479952277254844,-9.82872123942913,,,,,,,,,,
acc,1778673125.0,124.0,-1.558437512755651,0.14782175813823523,-9.829532260828833,,,,,,,,,,
acc,1778673125.0,124.0,-1.5620241561769908,0.1479693380806376,-9.829945439794095,,,,,,,,,,
acc,1778673125.0,124.0,-1.5655782055501866,0.1484705539403544,-9.829999895966154,,,,,,,,,,
acc,1778673125.0,124.0,-1.569454934063731,0.14967715976902723,-9.830763792997718,,,,,,,,,,
acc,1778673125.0,124.0,-1.573615905212675,0.1512277682024345,-9.831911219840768,,,,,,,,,,
acc,1778673125.0,124.0,-1.5774195904467518,0.15169937330161856,-9.832657747651272,,,,,,,,,,
acc,1778673125.0,124.0,-1.5804787561074378,0.15181171601898966,-9.833397491326911,,,,,,,,,,
acc,1778673126.0,125.0,-1.5845395469296124,0.15192303781328673,-9.833420577647551,,,,,,,,,,
acc,1778673126.0,125.0,-1.588243962615415,0.1523883243866558,-9.834508365265737,,,,,,,,,,
acc,1778673126.0,125.0,-1.5915597378745319,0.15391429343401908,-9.834556851659467,,,,,,,,,,
acc,1778673126.0,125.0,-1.5952003570729496,0.15542639515615642,-9.834604897430506,,,,,,,,,,
acc,1778673126.0,125.0,-1.5994823311703372,0.15724423682501754,-9.834971978736641,,,,,,,,,,
acc,1778673126.0,125.0,-1.6040803686949834,0.15872607763294422,-9.835335724177272,,,,,,,,,,
acc,1778673126.0,125.0,-1.6079266786207587,0.15983948531527287,-9.83569616406984,,,,,,,,,,
acc,1778673126.0,125.0,-1.611418563211621,0.16058780811933723,-9.835378880709222,,,,,,,,,,
acc,1778673126.0,125.0,-1.6148787152413897,0.16203926386484188,-9.8357744230916,,,,,,,,,,
acc,1778673126.0,125.0,-1.6183074231040107,0.16486191914651513,-9.835811404398202,,,,,,,,,,
acc,1778673126.0,125.0,-1.6217049725717867,0.1662745342223082,-9.836203016130392,,,,,,,,,,
acc,1778673126.0,125.0,-1.6250716468192277,0.1676743121629463,-9.83623610268422,,,,,,,,,,
acc,1778673126.0,125.0,-1.6280527510353227,0.16973581655545808,-9.836943326397558,,,,,,,,,,
acc,1778673126.0,125.0,-1.6310067645144222,0.1707491740538453,-9.836934190743134,,,,,,,,,,
acc,1778673126.0,125.0,-1.6339339334616751,0.17139835652754962,-9.837280104269702,,,,,,,,,,
acc,1778673126.0,125.0,-1.6364795266753716,0.17275157173705957,-9.837658369107618,,,,,,,,,,
acc,1778673126.0,125.0,-1.6390019868983465,0.17409248964992483,-9.837287760599448,,,,,,,,,,
acc,1778673126.0,125.0,-1.6411465584387355,0.17574070226442803,-9.836920519981144,,,,,,,,,,
acc,1778673126.0,125.0,-1.6439815820753865,0.17705445665146366,-9.83623714556081,,,,,,,,,,
acc,1778673126.0,125.0,-1.646080901938311,0.17800130658552896,-9.835524477422453,,,,,,,,,,
acc,1778673126.0,125.0,-1.647486698607194,0.1796139978207793,-9.835563729953813,,,,,,,,,,
acc,1778673126.0,125.0,-1.648524754552887,0.18156699946061722,-9.834892685423922,,,,,,,,,,
acc,1778673126.0,125.0,-1.649553377236212,0.18385722798364162,-9.834227738965273,,,,,,,,,,
acc,1778673126.0,125.0,-1.650572652386764,0.18648160971997937,-9.834243280505815,,,,,,,,,,
acc,1778673126.0,125.0,-1.6512276904388867,0.1880172372210252,-9.833939201023274,,,,,,,,,,
acc,1778673126.0,125.0,-1.652586715700285,0.18989387519892514,-9.833637884837458,,,,,,,,,,
acc,1778673126.0,125.0,-1.6546078359110414,0.1928183734640027,-9.83404924651824,,,,,,,,,,
acc,1778673126.0,125.0,-1.655936144532866,0.19607126086014148,-9.834421375282497,,,,,,,,,,
acc,1778673126.0,125.0,-1.6568974171101634,0.1985846485339759,-9.8355000617933,,,,,,,,,,
acc,1778673126.0,125.0,-1.6571400149156572,0.20107519605793328,-9.836604440545825,,,,,,,,,,
acc,1778673126.0,125.0,-1.657735373189375,0.2031881459516676,-9.836988844189909,,,,,,,,,,
acc,1778673126.0,125.0,-1.6579703562218102,0.20425247618839465,-9.837724728686743,,,,,,,,,,
acc,1778673126.0,125.0,-1.657848229854299,0.20495216951709905,-9.838418422156678,,,,,,,,,,
acc,1778673126.0,125.0,-1.657727213295265,0.20564550446797172,-9.839460785733866,,,,,,,,,,
acc,1778673126.0,125.0,-1.657607296458933,0.2073619477041018,-9.840848650869628,,,,,,,,,,
acc,1778673126.0,125.0,-1.6574884693511998,0.20838834903071538,-9.842259398621037,,,,,,,,,,
acc,1778673126.0,125.0,-1.6570157573592252,0.2094054230735426,-9.843266857941998,,,,,,,,,,
acc,1778673126.0,125.0,-1.6565473410718512,0.21108769834912477,-9.843590718364327,,,,,,,,,,
acc,1778673126.0,125.0,-1.6564381460548614,0.21310965987999755,-9.844231105712646,,,,,,,,,,
acc,1778673126.0,125.0,-1.6559749787784728,0.21475827349207757,-9.844546203719759,,,,,,,,,,
acc,1778673126.0,125.0,-1.654841577004936,0.21639190557646948,-9.845177908191184,,,,,,,,,,
acc,1778673126.0,125.0,-1.65371847484483,0.2180106922818001,-9.845448907692452,,,,,,,,,,
acc,1778673126.0,125.0,-1.6529605431027166,0.22032470641630136,-9.846072408933587,,,,,,,,,,
acc,1778673126.0,125.0,-1.6522094989425133,0.22332763012410337,-9.847080712271024,,,,,,,,,,
acc,1778673126.0,125.0,-1.651784758555873,0.22630326526010952,-9.847014950799975,,,,,,,,,,
acc,1778673126.0,125.0,-1.651044399182786,0.22925185981528234,-9.848014688806384,,,,,,,,,,
acc,1778673126.0,125.0,-1.6499558034780493,0.2311087577806236,-9.8475854668135,,,,,,,,,,
acc,1778673126.0,125.0,-1.6492320643704017,0.23330374568808535,-9.848189552313023,,,,,,,,,,
acc,1778673126.0,125.0,-1.648514902111993,0.23618872438788918,-9.848823651976941,,,,,,,,,,
acc,1778673126.0,125.0,-1.6478042569345142,0.2390474863711166,-9.848742052110433,,,,,,,,,,
acc,1778673126.0,125.0,-1.646745105565551,0.24117033270482446,-9.849371130949377,,,,,,,,,,
acc,1778673126.0,125.0,-1.6453406150280434,0.24256395097461386,-9.848929582960464,,,,,,,,,,
acc,1778673126.0,125.0,-1.643948887528126,0.24394490500645452,-9.84881152592781,,,,,,,,,,
acc,1778673126.0,125.0,-1.6425698070798715,0.24602324682786772,-9.849085000216668,,,,,,,,,,
acc,1778673126.0,125.0,-1.6408482857771323,0.24701780138169474,-9.849001025475017,,,,,,,,,,
acc,1778673126.0,125.0,-1.6394973813886184,0.24800331812133494,-9.848527346333329,,,,,,,,,,
acc,1778673126.0,125.0,-1.6381587530677073,0.2503997525989185,-9.849158375826311,,,,,,,,,,
acc,1778673126.0,125.0,-1.6364773163926072,0.2527744099746946,-9.848363797697052,,,,,,,,,,
acc,1778673126.0,125.0,-1.63516613224571,0.25512748815022723,-9.847895909311612,,,,,,,,,,
acc,1778673126.0,125.0,-1.633866863205797,0.25710421043849335,-9.847432272762333,,,,,,,,,,
acc,1778673126.0,125.0,-1.6329343646612184,0.25870800602098976,-9.847008343959653,,,,,,,,,,
acc,1778673126.0,125.0,-1.6323653036273689,0.2610071638153008,-9.846588267517504,,,,,,,,,,
acc,1778673126.0,125.0,-1.6314464502101247,0.26257549223355975,-9.846491486571871,,,,,,,,,,
acc,1778673126.0,125.0,-1.630180983101256,0.2651944686053557,-9.845685639793318,,,,,,,,,,
acc,1778673126.0,125.0,-1.6285720430173753,0.2677896456207208,-9.845952024743116,,,,,,,,,,
acc,1778673126.0,125.0,-1.626977723809246,0.26858640387004296,-9.844867105861422,,,,,,,,,,
acc,1778673126.0,125.0,-1.626782270139013,0.26834651679117905,-9.843437082458484,,,,,,,,,,
acc,1778673126.0,125.0,-1.6269435560490404,0.2694931779531365,-9.843368936943389,,,,,,,,,,
acc,1778673126.0,125.0,-1.6267484129009036,0.27204929091777263,-9.8423074913262,,,,,,,,,,
acc,1778673126.0,125.0,-1.6262355651223974,0.27490165376077685,-9.841894638151254,,,,,,,,,,
acc,1778673126.0,125.0,-1.6257273777250179,0.2777280964408853,-9.84116606784648,,,,,,,,,,
acc,1778673126.0,125.0,-1.625223808357545,0.28020937661214423,-9.840763587056205,,,,,,,,,,
acc,1778673126.0,125.0,-1.6243698517585192,0.2819581730786769,-9.839370853763338,,,,,,,,,,
acc,1778673126.0,125.0,-1.6235236552796077,0.2823067010529027,-9.837990776590996,,,,,,,,,,
acc,1778673126.0,125.0,-1.6233595894625603,0.28265206186579656,-9.836658735033533,,,,,,,,,,
acc,1778673126.0,125.0,-1.6231970145525059,0.2854080741378414,-9.835658266779939,,,,,,,,,,
acc,1778673126.0,125.0,-1.6230359170008724,0.2878195640708848,-9.834311926840865,,,,,,,,,,
acc,1778673126.0,125.0,-1.6225568056314714,0.28914424162889857,-9.833652262336292,,,,,,,,,,
acc,1778673126.0,125.0,-1.62208204806371,0.29081184465673726,-9.832963088780184,,,,,,,,,,
acc,1778673126.0,125.0,-1.6216116047326248,0.2934937067913676,-9.831321772054368,,,,,,,,,,
acc,1778673126.0,125.0,-1.6211454364328217,0.2947668221657914,-9.829340398191428,,,,,,,,,,
acc,1778673126.0,125.0,-1.6206835043152077,0.29638333150263635,-9.829080874063017,,,,,,,,,,
acc,1778673126.0,125.0,-1.6212551826950057,0.2993695270901335,-9.828184771182574,,,,,,,,,,
acc,1778673126.0,125.0,-1.6214666939940467,0.3023285864189641,-9.827296811398872,,,,,,,,,,
acc,1778673126.0,125.0,-1.62064687964849,0.3049057930920883,-9.826416920712134,,,,,,,,,,
acc,1778673126.0,125.0,-1.6201894781186839,0.30714010251264307,-9.825828999808863,,,,,,,,,,
acc,1778673126.0,125.0,-1.6190263071975184,0.3079342382697129,-9.824962447481106,,,,,,,,,,
acc,1778673126.0,125.0,-1.6171637622394988,0.3080467170618379,-9.823713303218021,,,,,,,,,,
acc,1778673126.0,125.0,-1.6156731146448666,0.3095425490732235,-9.823469419079968,,,,,,,,,,
acc,1778673126.0,125.0,-1.6145509848753816,0.3117347229891477,-9.822872779195485,,,,,,,,,,
acc,1778673126.0,125.0,-1.6137940150178434,0.3131970413076646,-9.822636533066543,,,,,,,,,,
acc,1778673126.0,125.0,-1.613398886761857,0.3150010431525866,-9.82275740569467,,,,,,,,,,
acc,1778673126.0,125.0,-1.6122974234638157,0.316788651636623,-9.821883262194499,,,,,,,,,,
acc,1778673126.0,125.0,-1.6108509975052954,0.3189149785430223,-9.821691502471568,,,,,,,,,,
acc,1778673126.0,125.0,-1.609417715532819,0.32169642326512377,-9.821820962727971,,,,,,,,,,
acc,1778673126.0,125.0,-1.6083524299625993,0.3248075551737697,-9.821239302830147,,,,,,,,,,
acc,1778673126.0,125.0,-1.6072968248701285,0.32789041556155973,-9.822082797795524,,,,,,,,,,
acc,1778673126.0,125.0,-1.6062508122853822,0.3313002331667471,-9.82188922489964,,,,,,,,,,
acc,1778673126.0,125.0,-1.6059242304778918,0.3353535051122849,-9.822052382848735,,,,,,,,,,
acc,1778673126.0,125.0,-1.6052456536848645,0.3386955040852991,-9.822888489100311,,,,,,,,,,
acc,1778673126.0,125.0,-1.6045732432606077,0.34236210539026124,-9.823007072107872,,,,,,,,,,
acc,1778673126.0,125.0,-1.6039069431691824,0.345285444016025,-9.823124577527077,,,,,,,,,,
acc,1778673126.0,125.0,-1.6028917352305074,0.347152815062325,-9.823595977803723,,,,,,,,,,
acc,1778673126.0,125.0,-1.6029151552474041,0.34932269420401557,-9.82374362617842,,,,,,,,,,
acc,1778673126.0,125.0,-1.602618885177602,0.35079841532636347,-9.823854438397541,,,,,,,,,,
acc,1778673126.0,125.0,-1.6023253073738544,0.35329012873575116,-9.824354700693311,,,,,,,,,,
acc,1778673126.0,125.0,-1.6023538746075132,0.3557591994442681,-9.824495454413578,,,,,,,,,,
acc,1778673126.0,125.0,-1.6027371448216203,0.3592707391176786,-9.825309359789639,,,,,,,,,,
acc,1778673126.0,125.0,-1.6024424924105363,0.3637797710664658,-9.826470840694949,,,,,,,,,,
acc,1778673126.0,125.0,-1.6021505175641748,0.3678928569153675,-9.82691183281082,,,,,,,,,,
acc,1778673126.0,125.0,-1.601861195950659,0.3716136038105195,-9.827384311980564,,,,,,,,,,
acc,1778673126.0,125.0,-1.6012195409391836,0.3756555020709673,-9.828562431766937,,,,,,,,,,
acc,1778673126.0,125.0,-1.6009386792781632,0.38140000708941907,-9.828664949142844,,,,,,,,,,
acc,1778673126.0,125.0,-1.6009798470099428,0.38641788012450007,-9.829831431490508,,,,,,,,,,
acc,1778673126.0,125.0,-1.5999912385452946,0.38965081863638745,-9.830596847790527,,,,,,,,,,
acc,1778673126.0,125.0,-1.5993665762225575,0.3942387433445907,-9.831710280160667,,,,,,,,,,
acc,1778673126.0,125.0,-1.5983926278704566,0.3987849767068119,-9.833523528555688,,,,,,,,,,
acc,1778673126.0,125.0,-1.5970725584419352,0.40328989758459993,-9.834255394116735,,,,,,,,,,
acc,1778673126.0,125.0,-1.596474418681435,0.40739891896608443,-9.835016112590141,,,,,,,,,,
acc,1778673126.0,125.0,-1.5962366767478093,0.41218053482326333,-9.836834814614898,,,,,,,,,,
acc,1778673126.0,125.0,-1.5952911704057153,0.4162087653428847,-9.837927055853607,,,,,,,,,,
acc,1778673126.0,125.0,-1.5943542560555466,0.41917098873141356,-9.838263943392924,,,,,,,,,,
acc,1778673126.0,125.0,-1.5937808180036601,0.4231356956666096,-9.839698169320732,,,,,,,,,,
acc,1778673126.0,125.0,-1.5932125908889772,0.42809377636632107,-9.839664000086552,,,,,,,,,,
acc,1778673126.0,125.0,-1.5926495273582737,0.43268733413411326,-9.839630141354467,,,,,,,,,,
acc,1778673126.0,125.0,-1.5927660198613665,0.43652921561355174,-9.839596590302863,,,,,,,,,,
acc,1778673126.0,125.0,-1.5925619767642625,0.43895181209547,-9.839953800893637,,,,,,,,,,
acc,1778673126.0,125.0,-1.5920048255127817,0.44238179566909097,-9.840307765447145,,,,,,,,,,
acc,1778673126.0,125.0,-1.591097774874259,0.44684551550088825,-9.840623019046339,,,,,,,,,,
acc,1778673127.0,126.0,-1.5898439953695118,0.4502037676028095,-9.839906006273257,,,,,,,,,,
acc,1778673127.0,126.0,-1.588601609183076,0.45527083793565415,-9.840579873002591,,,,,,,,,,
acc,1778673127.0,126.0,-1.5873705127809132,0.4602918628990479,-9.840218214634707,,,,,,,,,,
acc,1778673127.0,126.0,-1.5861506035698514,0.46562223228853244,-9.840214814089911,,,,,,,,,,
acc,1778673127.0,126.0,-1.5849417798890324,0.4712591350311034,-9.84017595003659,,,,,,,,,,
acc,1778673127.0,126.0,-1.5840989123526248,0.47787421571810135,-9.839462999941505,,,,,,,,,,
acc,1778673127.0,126.0,-1.5839736286113837,0.4844291840089107,-9.839430967738119,,,,,,,,,,
acc,1778673127.0,126.0,-1.5834945210989024,0.49056961482623307,-9.839754188863393,,,,,,,,,,
acc,1778673127.0,126.0,-1.5830197673196145,0.4963347786505145,-9.838406126677503,,,,,,,,,,
acc,1778673127.0,126.0,-1.5821943654805979,0.5009826485706435,-9.838064221530557,,,,,,,,,,
acc,1778673127.0,126.0,-1.580347053777108,0.5042039189280232,-9.838399862459553,,,,,,,,,,
acc,1778673127.0,126.0,-1.5799009015353658,0.5077508792613985,-9.836673650716449,,,,,,,,,,
acc,1778673127.0,126.0,-1.5808431761473305,0.5116205790513864,-9.8373768901593,,,,,,,,,,
acc,1778673127.0,126.0,-1.5817768881491696,0.5154551142193162,-9.837044337868441,,,,,,,,,,
acc,1778673127.0,126.0,-1.582702115351337,0.5181898995710026,-9.837069778813621,,,,,,,,,,
acc,1778673127.0,126.0,-1.5829090014057117,0.5212548047342526,-9.83674001730331,,,,,,,,,,
acc,1778673127.0,126.0,-1.582084606240172,0.525676221973043,-9.836732729253384,,,,,,,,,,
acc,1778673127.0,126.0,-1.5812677024922137,0.5300574610494415,-9.83601556492188,,,,,,,,,,
acc,1778673127.0,126.0,-1.581168146406373,0.5354637917270262,-9.836050354476592,,,,,,,,,,
acc,1778673127.0,126.0,-1.5817439339993242,0.5408209941740009,-9.835729856652279,,,,,,,,,,
acc,1778673127.0,126.0,-1.5819595271679685,0.5475138871927597,-9.835767242478752,,,,,,,,,,
acc,1778673127.0,126.0,-1.5811437600958085,0.5534360274142556,-9.836159250713768,,,,,,,,,,
acc,1778673127.0,126.0,-1.5799804348138438,0.5617536199643453,-9.836512202309153,,,,,,,,,,
acc,1778673127.0,126.0,-1.57989257632778,0.5689307246236249,-9.835832545503346,,,,,,,,,,
acc,1778673127.0,126.0,-1.5801249930390244,0.5760426097515533,-9.83693389362625,,,,,,,,,,
acc,1778673127.0,126.0,-1.5796808588203775,0.5817055048631952,-9.836569872593934,,,,,,,,,,
acc,1778673127.0,126.0,-1.5785308272193095,0.5869619691253904,-9.83585418828536,,,,,,,,,,
acc,1778673127.0,126.0,-1.5767168072451458,0.5928806003298217,-9.835890444287402,,,,,,,,,,
acc,1778673127.0,126.0,-1.5749192715656313,0.5973610848913017,-9.835216437546494,,,,,,,,,,
acc,1778673127.0,126.0,-1.5741674804371362,0.602475284350998,-9.835222994489726,,,,,,,,,,
acc,1778673127.0,126.0,-1.5730675497848752,0.6072235425594444,-9.835939416017451,,,,,,,,,,
acc,1778673127.0,126.0,-1.5713031755259832,0.6119286525793252,-9.837394764029122,,,,,,,,,,
acc,1778673127.0,126.0,-1.5698743021031665,0.6155261021136023,-9.8377364882757,,,,,,,,,,
acc,1778673127.0,126.0,-1.5677839833364815,0.6184164313004664,-9.838820534831045,,,,,,,,,,
acc,1778673127.0,126.0,-1.5663870893670202,0.6219549253391535,-9.838794340818746,,,,,,,,,,
acc,1778673127.0,126.0,-1.5657128314847033,0.6254612645173997,-9.839478308949884,,,,,,,,,,
acc,1778673127.0,126.0,-1.564689729552032,0.6285807789809522,-9.839446137649654,,,,,,,,,,
acc,1778673127.0,126.0,-1.5640308958433142,0.6302875739459729,-9.840159686263474,,,,,,,,,,
acc,1778673127.0,126.0,-1.5630230779317977,0.6330437632948885,-9.840121323189981,,,,,,,,,,
acc,1778673127.0,126.0,-1.561669447096738,0.6350649735538351,-9.83940886995264,,,,,,,,,,
acc,1778673127.0,126.0,-1.5606830880381857,0.6374227787886222,-9.840442224840668,,,,,,,,,,
acc,1778673127.0,126.0,-1.5597056921796735,0.6394041962483727,-9.840436788685263,,,,,,,,,,
acc,1778673127.0,126.0,-1.5590921491810839,0.6431069421613439,-9.842206230218826,,,,,,,,,,
acc,1778673127.0,126.0,-1.5581292104381503,0.6467760406419251,-9.841474831168384,,,,,,,,,,
acc,1778673127.0,126.0,-1.5568200509688621,0.6500568263495801,-9.842489412316509,,,,,,,,,,
acc,1778673127.0,126.0,-1.5552033204097058,0.6540177412394611,-9.842465373074468,,,,,,,,,,
acc,1778673127.0,126.0,-1.5536012813328703,0.6589720633995736,-9.843115981908667,,,,,,,,,,
acc,1778673127.0,126.0,-1.5520138002340471,0.6635263937759673,-9.844506115118921,,,,,,,,,,
acc,1778673127.0,126.0,-1.5497308117405926,0.6673649086339506,-9.844108778725749,,,,,,,,,,
acc,1778673127.0,126.0,-1.5481785021902896,0.6708135712331431,-9.845454395835134,,,,,,,,,,
acc,1778673127.0,126.0,-1.5486991091500726,0.673201494629535,-9.845403413364558,,,,,,,,,,
acc,1778673127.0,126.0,-1.5506348513895205,0.6752127475255548,-9.846417789222492,,,,,,,,,,
acc,1778673127.0,126.0,-1.5518430701914394,0.6744014951249176,-9.846677519860231,,,,,,,,,,
acc,1778673127.0,126.0,-1.5526853386587753,0.675336948381711,-9.845621516428974,,,,,,,,,,
acc,1778673127.0,126.0,-1.5521355907003858,0.6762639010313934,-9.846598415940973,,,,,,,,,,
acc,1778673127.0,126.0,-1.5533301720322117,0.6751236199962424,-9.845543131360108,,,,,,,,,,
acc,1778673127.0,126.0,-1.5552238310417745,0.6736387389021948,-9.845810810127906,,,,,,,,,,
acc,1778673127.0,126.0,-1.5563903490695494,0.6728417897838067,-9.84440771160392,,,,,,,,,,
acc,1778673127.0,126.0,-1.5558069331755124,0.6706677110281858,-9.844011269459306,,,,,,,,,,
acc,1778673127.0,126.0,-1.5545188767830822,0.6685133884564654,-9.842979494688162,,,,,,,,,,
acc,1778673127.0,126.0,-1.5535974961947292,0.6681179761028868,-9.841957095810827,,,,,,,,,,
acc,1778673127.0,126.0,-1.5533944213182498,0.6701754234545091,-9.841902399431078,,,,,,,,,,
acc,1778673127.0,126.0,-1.553867630417213,0.6701198699065454,-9.840499322878907,,,,,,,,,,
acc,1778673127.0,126.0,-1.554336539393685,0.6704197922127861,-9.841203300841123,,,,,,,,,,
acc,1778673127.0,126.0,-1.5544817106726099,0.6689776555796286,-9.839451615181156,,,,,,,,,,
acc,1778673127.0,126.0,-1.5549450394065942,0.6679035857964859,-9.83945518083769,,,,,,,,,,
acc,1778673127.0,126.0,-1.5557591197373006,0.6713473527903261,-9.839458714092569,,,,,,,,,,
acc,1778673127.0,126.0,-1.5562108404663448,0.6723105593500838,-9.838432805646862,,,,,,,,,,
acc,1778673127.0,126.0,-1.5566584563414778,0.6743299079809635,-9.838445629369904,,,,,,,,,,
acc,1778673127.0,126.0,-1.5578119376032291,0.6759759445629369,-9.837748403622847,,,,,,,,,,
acc,1778673127.0,126.0,-1.557925527439596,0.6755127189391149,-9.83812240852693,,,,,,,,,,
acc,1778673127.0,126.0,-1.55732816122725,0.6761186066512902,-9.837392616482381,,,,,,,,,,
acc,1778673127.0,126.0,-1.5553518518994716,0.6760090465617101,-9.837769854468865,,,,,,,,,,
acc,1778673127.0,126.0,-1.5551328349645996,0.6738061867695991,-9.836049369146313,,,,,,,,,,
acc,1778673127.0,126.0,-1.556300179720106,0.670913411779152,-9.837148746318011,,,,,,,,,,
acc,1778673127.0,126.0,-1.5567469837333276,0.6698217515889056,-9.836143828937795,,,,,,,,,,
acc,1778673127.0,126.0,-1.5561603271355806,0.6707988214370852,-9.834828575856355,,,,,,,,,,
acc,1778673127.0,126.0,-1.5562889253835421,0.6714475449748999,-9.833489780301136,,,,,,,,,,
acc,1778673127.0,126.0,-1.5546770217246642,0.6727648028988801,-9.833192551001693,,,,,,,,,,
acc,1778673127.0,126.0,-1.5548190989762811,0.6737151288052413,-9.83325299365638,,,,,,,,,,
acc,1778673127.0,126.0,-1.5563442565456127,0.6750117808582152,-9.833987316483741,,,,,,,,,,
acc,1778673127.0,126.0,-1.5571456219045927,0.675941688147174,-9.835424908377611,,,,,,,,,,
acc,1778673127.0,126.0,-1.5575847432450107,0.6772181071255806,-9.835429570913425,,,,,,,,,,
acc,1778673127.0,126.0,-1.5580198742253148,0.6784829270972639,-9.836854056820524,,,,,,,,,,
acc,1778673127.0,126.0,-1.558806012995967,0.6811206248246856,-9.837200694372722,,,,,,,,,,
acc,1778673127.0,126.0,-1.5595850080084088,0.6840893152936309,-9.836869743488242,,,,,,,,,,
acc,1778673127.0,126.0,-1.5600019622938992,0.687740970782492,-9.835867361516364,,,,,,,,,,
acc,1778673127.0,126.0,-1.5604151276548284,0.6923888435098723,-9.835868003418192,,,,,,,,,,
acc,1778673127.0,126.0,-1.5601501000428577,0.6977044131884708,-9.833809829679527,,,,,,,,,,
acc,1778673127.0,126.0,-1.5588225769633368,0.7040010798642474,-9.833474197695654,,,,,,,,,,
acc,1778673127.0,126.0,-1.5578620882440632,0.7092111274631318,-9.832538175004732,,,,,,,,,,
acc,1778673127.0,126.0,-1.5576202604637708,0.7154032309442564,-9.831894631223557,,,,,,,,,,
acc,1778673127.0,126.0,-1.5580550686721883,0.721539065880208,-9.832996268590902,,,,,,,,,,
acc,1778673127.0,126.0,-1.5581664491260054,0.7279741145512744,-9.832064588923384,,,,,,,,,,
acc,1778673127.0,126.0,-1.558276817449466,0.7343506870006745,-9.832809710892944,,,,,,,,,,
acc,1778673127.0,126.0,-1.5580312209716587,0.7406693146111896,-9.832163699640128,,,,,,,,,,
acc,1778673127.0,126.0,-1.5584622947157207,0.7469305239368169,-9.832907920969449,,,,,,,,,,
acc,1778673127.0,126.0,-1.5595993840471891,0.7524248948425712,-9.832615979139005,,,,,,,,,,
acc,1778673127.0,126.0,-1.5596967310882734,0.7585792795057704,-9.83232669022621,,,,,,,,,,
acc,1778673127.0,126.0,-1.558728298850723,0.7643227674371568,-9.833459895744346,,,,,,,,,,
acc,1778673127.0,126.0,-1.5581236378439474,0.7707239962713878,-9.833162938045893,,,,,,,,,,
acc,1778673127.0,126.0,-1.5589088336315517,0.7780964565095686,-9.833543117280538,,,,,,,,,,
acc,1778673127.0,126.0,-1.5611067598337802,0.7854019221385595,-9.833245403338944,,,,,,,,,,
acc,1778673127.0,126.0,-1.5618648475680375,0.7940608675448081,-9.833624833196675,,,,,,,,,,
acc,1778673127.0,126.0,-1.5608767133739752,0.8026411278676604,-9.835420680710655,,,,,,,,,,
acc,1778673127.0,126.0,-1.5606074912895493,0.811462894702556,-9.836170808823226,,,,,,,,,,
acc,1778673127.0,126.0,-1.5603407156649,0.817435754452736,-9.837588558835368,,,,,,,,,,
acc,1778673127.0,126.0,-1.5611057645371806,0.8237092998181719,-9.838638454612752,,,,,,,,,,
acc,1778673127.0,126.0,-1.5625737940842188,0.8302453131445264,-9.840743704468448,,,,,,,,,,
acc,1778673127.0,126.0,-1.563673521589329,0.8356925325198665,-9.842510356137149,,,,,,,,,,
acc,1778673127.0,126.0,-1.5633788845235517,0.8407352812994053,-9.84390599214339,,,,,,,,,,
acc,1778673127.0,126.0,-1.5630869248669848,0.8457322058986351,-9.844933974873967,,,,,,,,,,
acc,1778673127.0,126.0,-1.5627976182895982,0.8506837227289408,-9.845597654335373,,,,,,,,,,
acc,1778673127.0,126.0,-1.562865902524184,0.8559452153465693,-9.846929741250456,,,,,,,,,,
acc,1778673127.0,126.0,-1.5629335662501713,0.8604489541735783,-9.848640179508486,,,,,,,,,,
acc,1778673127.0,126.0,-1.5633200916661376,0.8656217087354889,-9.851683951568186,,,,,,,,,,
acc,1778673127.0,126.0,-1.5626737044354528,0.871776857973435,-9.854025626039814,,,,,,,,,,
acc,1778673127.0,126.0,-1.5623881528546517,0.8764917033366144,-9.855316621149875,,,,,,,,,,
acc,1778673127.0,126.0,-1.5634895672729867,0.8790694003179923,-9.858619190893807,,,,,,,,,,
acc,1778673127.0,126.0,-1.5645809729815954,0.8826885770778942,-9.860897843856993,,,,,,,,,,
acc,1778673127.0,126.0,-1.563213186113754,0.8848904947208037,-9.86351076129696,,,,,,,,,,
acc,1778673127.0,126.0,-1.5618578285198021,0.8870724032247829,-9.865035031112733,,,,,,,,,,
acc,1778673127.0,126.0,-1.5622541293056635,0.8867852187005248,-9.865835516922026,,,,,,,,,,
acc,1778673127.0,126.0,-1.5633567615977655,0.887210576610661,-9.866628728603,,,,,,,,,,
acc,1778673127.0,126.0,-1.5616806318616212,0.8865671655708571,-9.866349837681707,,,,,,,,,,
acc,1778673127.0,126.0,-1.5610491426481012,0.8862845722139476,-9.866463937275503,,,,,,,,,,
acc,1778673128.0,127.0,-1.5618077538977069,0.8873889088540098,-9.866896467492099,,,,,,,,,,
acc,1778673128.0,127.0,-1.5618850331647183,0.8878087809429647,-9.867005599784155,,,,,,,,,,
acc,1778673128.0,127.0,-1.561251686533338,0.8882248375947343,-9.867078246010497,,,,,,,,,,
acc,1778673128.0,127.0,-1.5606240952125217,0.88721724800877,-9.865481887888906,,,,,,,,,,
acc,1778673128.0,127.0,-1.5624514725639473,0.8886680801930893,-9.867378711040526,,,,,,,,,,
acc,1778673128.0,127.0,-1.5635523115464174,0.8901057284600191,-9.866418566562352,,,,,,,,,,
acc,1778673128.0,127.0,-1.5629038141312381,0.8922402453443445,-9.8664965472404,,,,,,,,,,
acc,1778673128.0,127.0,-1.5629711333454384,0.8922610617501524,-9.865863886568185,,,,,,,,,,
acc,1778673128.0,127.0,-1.5647771828171761,0.8912167944472572,-9.864598030974948,,,,,,,,,,
acc,1778673128.0,127.0,-1.5672412588231763,0.8916018819996873,-9.866112420562992,,,,,,,,,,
acc,1778673128.0,127.0,-1.5686535341577883,0.8870849298696237,-9.866228677595906,,,,,,,,,,
acc,1778673128.0,127.0,-1.5693430432249802,0.8847033277231412,-9.86389461256516,,,,,,,,,,
acc,1778673128.0,127.0,-1.5707362193465548,0.8861770042222743,-9.86364056694576,,,,,,,,,,
acc,1778673128.0,127.0,-1.5728266681992424,0.8886666893859941,-9.86026512591122,,,,,,,,,,
acc,1778673128.0,127.0,-1.5738332263159667,0.8901043502612078,-9.85905014705031,,,,,,,,,,
acc,1778673128.0,127.0,-1.5744756667957347,0.8946526508595983,-9.858485152861395,,,,,,,,,,
acc,1778673128.0,127.0,-1.5758222020428365,0.8991596204099019,-9.857960787218182,,,,,,,,,,
acc,1778673128.0,127.0,-1.5768015393216597,0.9029511961442978,-9.857796157459456,,,,,,,,,,
acc,1778673128.0,127.0,-1.577062044513251,0.9056434227726617,-9.854828787232043,,,,,,,,,,
acc,1778673128.0,127.0,-1.5766457441110828,0.9048325099355811,-9.854302153129849,,,,,,,,,,
acc,1778673128.0,127.0,-1.5762332266892065,0.9040289659774758,-9.850337133259972,,,,,,,,,,
acc,1778673128.0,127.0,-1.5768538580251183,0.904617094987542,-9.849496344544955,,,,,,,,,,
acc,1778673128.0,127.0,-1.5774688495968763,0.9066197449988636,-9.848663196195128,,,,,,,,,,
acc,1778673128.0,127.0,-1.5787881853586403,0.9099885676943863,-9.84719868389063,,,,,,,,,,
acc,1778673128.0,127.0,-1.580450503026419,0.9126168447215429,-9.846137945073794,,,,,,,,,,
acc,1778673128.0,127.0,-1.580677849575705,0.9159311709287092,-9.84437691263721,,,,,,,,,,
acc,1778673128.0,127.0,-1.581258092001942,0.9202447795332933,-9.84295135039315,,,,,,,,,,
acc,1778673128.0,127.0,-1.5818330616838636,0.9248741606649135,-9.841893704239496,,,,,,,,,,
acc,1778673128.0,127.0,-1.5827577774285448,0.9298164357668042,-9.840526201622147,,,,,,,,,,
acc,1778673128.0,127.0,-1.5843840228490875,0.9371630652564984,-9.840129537106119,,,,,,,,,,
acc,1778673128.0,127.0,-1.5845756249569956,0.9430230695019268,-9.839097533165887,,,,,,,,,,
acc,1778673128.0,127.0,-1.584091047617503,0.9502496884582322,-9.837755439748983,,,,,,,,,,
acc,1778673128.0,127.0,-1.5842853120313098,0.9584400382506653,-9.838839313282756,,,,,,,,,,
acc,1778673128.0,127.0,-1.5841583346099937,0.9630772955358154,-9.838457977757148,,,,,,,,,,
acc,1778673128.0,127.0,-1.5840325110502766,0.9673174516125969,-9.838435078370361,,,,,,,,,,
acc,1778673128.0,127.0,-1.584227307393098,0.9715190767978304,-9.838412387073506,,,,,,,,,,
acc,1778673128.0,127.0,-1.584100857068521,0.9746531120116607,-9.838070425449857,,,,,,,,,,
acc,1778673128.0,127.0,-1.5846499941419019,0.9774037060083927,-9.83805104780463,,,,,,,,,,
acc,1778673128.0,127.0,-1.5845197028046936,0.9811587050985237,-9.838386808047126,,,,,,,,,,
acc,1778673128.0,127.0,-1.5840356336432122,0.9842051436628019,-9.838009584502505,,,,,,,,,,
acc,1778673128.0,127.0,-1.5835559632858385,0.9872238988141777,-9.838736186775886,,,,,,,,,,
acc,1778673128.0,127.0,-1.5837550900825152,0.9905346895522549,-9.83835578837942,,,,,,,,,,
acc,1778673128.0,127.0,-1.5843073691846372,0.9931409654380349,-9.839043741198813,,,,,,,,,,
acc,1778673128.0,127.0,-1.5841801913286777,0.9946586541626684,-9.839051013261251,,,,,,,,,,
acc,1778673128.0,127.0,-1.583699207358089,0.9947781804358323,-9.839022724879115,,,,,,,,,,
acc,1778673128.0,127.0,-1.5825126614745804,0.997700856920317,-9.839740120601121,,,,,,,,,,
acc,1778673128.0,127.0,-1.5806624595807761,1.0019813456346303,-9.839741064567587,,,,,,,,,,
acc,1778673128.0,127.0,-1.5805684035230976,1.0072523370646878,-9.83835762895893,,,,,,,,,,
acc,1778673128.0,127.0,-1.5825695058403455,1.0135403338224183,-9.840145962971704,,,,,,,,,,
acc,1778673128.0,127.0,-1.5838424911837932,1.019061257998881,-9.841563084348516,,,,,,,,,,
acc,1778673128.0,127.0,-1.5843939760547328,1.023147641775364,-9.84222189201938,,,,,,,,,,
acc,1778673128.0,127.0,-1.5849404495057948,1.0271968920129888,-9.84358465477673,,,,,,,,,,
acc,1778673128.0,127.0,-1.585836927957885,1.0304994134738197,-9.84532549007531,,,,,,,,,,
acc,1778673128.0,127.0,-1.5867252599854,1.0344818571370338,-9.845240184655276,,,,,,,,,,
acc,1778673128.0,127.0,-1.5886704140837973,1.0391025500923117,-9.846220548885212,,,,,,,,,,
acc,1778673128.0,127.0,-1.590917368814468,1.0436812541672973,-9.84683703352857,,,,,,,,,,
acc,1778673128.0,127.0,-1.5931439051546865,1.0503126545773542,-9.846383021624575,,,,,,,,,,
acc,1778673128.0,127.0,-1.5960601322341934,1.0534051198921892,-9.847388495095888,,,,,,,,,,
acc,1778673128.0,127.0,-1.5968555645871996,1.0564694835443504,-9.847674899018468,,,,,,,,,,
acc,1778673128.0,127.0,-1.5979987305275194,1.060890371877282,-9.848313671227672,,,,,,,,,,
acc,1778673128.0,127.0,-1.5998414410299457,1.06459664867462,-9.848911135376095,,,,,,,,,,
acc,1778673128.0,127.0,-1.60269680666456,1.0686242078103305,-9.850213112041223,,,,,,,,,,
acc,1778673128.0,127.0,-1.6051712634037796,1.0729346444723846,-9.851858219254142,,,,,,,,,,
acc,1778673128.0,127.0,-1.6069487961040767,1.0754665697449493,-9.852423473603347,,,,,,,,,,
acc,1778673128.0,127.0,-1.6080002434501297,1.0776560196320024,-9.854438960191423,,,,,,,,,,
acc,1778673128.0,127.0,-1.6090421361480087,1.0805000119889518,-9.855335733867278,,,,,,,,,,
acc,1778673128.0,127.0,-1.6093646283558583,1.0819337896210728,-9.854839987465057,,,,,,,,,,
acc,1778673128.0,127.0,-1.6093292282429201,1.083354538316636,-9.8547037168557,,,,,,,,,,
acc,1778673128.0,127.0,-1.6103590442698639,1.0857917765640954,-9.85527861722144,,,,,,,,,,
acc,1778673128.0,127.0,-1.611734473091386,1.0871774671972192,-9.855138360723128,,,,,,,,,,
acc,1778673128.0,127.0,-1.612032499660588,1.0895799659581644,-9.854963884393678,,,,,,,,,,
acc,1778673128.0,127.0,-1.613037750684451,1.092670574629881,-9.85383258218738,,,,,,,,,,
acc,1778673128.0,127.0,-1.6140338668526948,1.095378127636466,-9.851611162381946,,,,,,,,,,
acc,1778673128.0,127.0,-1.614310998512618,1.0970316766442998,-9.851149261677802,,,,,,,,,,
acc,1778673128.0,127.0,-1.6142306500512977,1.1004095323726828,-9.849662158241486,,,,,,,,,,
acc,1778673128.0,127.0,-1.6145059935147286,1.1051410640188146,-9.848827503172165,,,,,,,,,,
acc,1778673128.0,127.0,-1.6147788348939012,1.1101845613672263,-9.84871037447732,,,,,,,,,,
acc,1778673128.0,127.0,-1.6150491969256076,1.1165665987151094,-9.847635898783823,,,,,,,,,,
acc,1778673128.0,127.0,-1.6149621403536245,1.1242750125629677,-9.84862998717027,,,,,,,,,,
acc,1778673128.0,127.0,-1.6155858075362601,1.1326233116444908,-9.847804711584223,,,,,,,,,,
acc,1778673128.0,127.0,-1.617268701813665,1.1384464831726704,-9.847341906264955,,,,,,,,,,
acc,1778673128.0,127.0,-1.6178714089531374,1.1421224351191537,-9.848303171838921,,,,,,,,,,
acc,1778673128.0,127.0,-1.617084268254156,1.1450905448836346,-9.847480866070477,,,,,,,,,,
acc,1778673128.0,127.0,-1.618398584023772,1.147321750365528,-9.846062592221305,,,,,,,,,,
acc,1778673128.0,127.0,-1.618991023766552,1.1498876514461216,-9.846006083015544,,,,,,,,,,
acc,1778673128.0,127.0,-1.6188681472704454,1.1517202940839928,-9.843181345411555,,,,,,,,,,
acc,1778673128.0,127.0,-1.6187463873700876,1.153536283244239,-9.84244108583682,,,,,,,,,,
acc,1778673128.0,127.0,-1.617951295623819,1.1560457120024996,-9.83996821128083,,,,,,,,,,
acc,1778673128.0,127.0,-1.6164534963307953,1.1592422608024233,-9.839931588194785,,,,,,,,,,
acc,1778673128.0,127.0,-1.6149693077474487,1.1624097621205602,-9.84025025969184,,,,,,,,,,
acc,1778673128.0,127.0,-1.6134986061913528,1.1665778890803211,-9.836732399040718,,,,,,,,,,
acc,1778673128.0,127.0,-1.61342564005199,1.169998207038616,-9.836370209356225,,,,,,,,,,
acc,1778673128.0,127.0,-1.6140632696201345,1.1730679675842357,-9.836366281810172,,,,,,,,,,
acc,1778673128.0,127.0,-1.6139851723063643,1.175754871007382,-9.836397884315176,,,,,,,,,,
acc,1778673128.0,127.0,-1.6132333463812087,1.177032987221215,-9.836784161426959,,,,,,,,,,
acc,1778673128.0,127.0,-1.6138727233475068,1.1782994890160552,-9.835108128234948,,,,,,,,,,
acc,1778673128.0,127.0,-1.6158906611513064,1.1781346166283941,-9.835825592959702,,,,,,,,,,
acc,1778673128.0,127.0,-1.616505890731098,1.1762319097324903,-9.835826614417984,,,,,,,,,,
acc,1778673128.0,127.0,-1.6178254622865522,1.1781801293183614,-9.83412378822931,,,,,,,,,,
acc,1778673128.0,127.0,-1.6205174045680835,1.18149501610579,-9.835560139525294,,,,,,,,,,
acc,1778673128.0,127.0,-1.6221554847248763,1.1833954091162961,-9.834214696614387,,,,,,,,,,
acc,1778673128.0,127.0,-1.6227137849876072,1.1835392002692589,-9.833875385640859,,,,,,,,,,
acc,1778673128.0,127.0,-1.6236219736804043,1.183681684772119,-9.833894128902035,,,,,,,,,,
acc,1778673128.0,127.0,-1.6259062804770412,1.1855622072203804,-9.833557730971815,,,,,,,,,,
acc,1778673128.0,127.0,-1.627814867680303,1.188135573751144,-9.835354187886551,,,,,,,,,,
acc,1778673128.0,127.0,-1.6290316729984933,1.1899756230944207,-9.835359493067745,,,,,,,,,,
acc,1778673128.0,127.0,-1.6291725175205365,1.1917989516548029,-9.835755206181929,,,,,,,,,,
acc,1778673128.0,127.0,-1.6300220148182103,1.1946706058067316,-9.837212226913808,,,,,,,,,,
acc,1778673128.0,127.0,-1.6315737252654634,1.197835641347648,-9.835887265622103,,,,,,,,,,
acc,1778673128.0,127.0,-1.6334308116125866,1.200297477484842,-9.83624268843319,,,,,,,,,,
acc,1778673128.0,127.0,-1.6335316805551834,1.2034113808644744,-9.837659784984318,,,,,,,,,,
acc,1778673128.0,127.0,-1.632602232819637,1.2061775112665043,-9.8363307566722,,,,,,,,,,
acc,1778673128.0,127.0,-1.6337755346874008,1.2092379819660688,-9.83813750907508,,,,,,,,,,
acc,1778673128.0,127.0,-1.6345832037314705,1.2136905070406838,-9.839182416260801,,,,,,,,,,
acc,1778673128.0,127.0,-1.6360934660227375,1.2198419041189132,-9.837484589809584,,,,,,,,,,
acc,1778673128.0,127.0,-1.6365251099245641,1.225937402601605,-9.838570924522552,,,,,,,,,,
acc,1778673128.0,127.0,-1.6362428987716262,1.230912616020197,-9.837837057040279,,,,,,,,,,
acc,1778673128.0,127.0,-1.6366731847571725,1.2365525425464334,-9.836115961694954,,,,,,,,,,
acc,1778673128.0,127.0,-1.6374545224541854,1.240756856435563,-9.836469306312178,,,,,,,,,,
acc,1778673128.0,127.0,-1.6375188273812948,1.2459523652087023,-9.83614500175229,,,,,,,,,,
acc,1778673128.0,127.0,-1.639002413252756,1.2521655651883452,-9.836888547705401,,,,,,,,,,
acc,1778673128.0,127.0,-1.640791994080391,1.2597066668053014,-9.836169968214378,,,,,,,,,,
acc,1778673128.0,127.0,-1.642565312739787,1.2640555377492027,-9.836522822066476,,,,,,,,,,
acc,1778673128.0,127.0,-1.6429381460771881,1.2686843664077978,-9.83761789649277,,,,,,,,,,
acc,1778673128.0,127.0,-1.6443724858507869,1.2746909975513165,-9.837993087181262,,,,,,,,,,
acc,1778673128.0,127.0,-1.6478526007948024,1.278903703812256,-9.840139704616218,,,,,,,,,,
acc,1778673128.0,127.0,-1.6502716823032795,1.2823681959846802,-9.840456484925985,,,,,,,,,,
acc,1778673128.0,127.0,-1.6502195159318307,1.2875405385457066,-9.840415424830585,,,,,,,,,,
acc,1778673128.0,127.0,-1.6501678236034045,1.2947601828883017,-9.837996461223359,,,,,,,,,,
acc,1778673128.0,127.0,-1.6511815045202196,1.3025886596094431,-9.836664373495292,,,,,,,,,,
acc,1778673129.0,128.0,-1.65218597397855,1.3124403014531907,-9.836693267199632,,,,,,,,,,
acc,1778673129.0,128.0,-1.6535362774625608,1.320818049139702,-9.837431830986754,,,,,,,,,,
acc,1778673129.0,128.0,-1.6548743105523487,1.3256409925784745,-9.837773218116942,,,,,,,,,,
acc,1778673129.0,128.0,-1.6565196612556221,1.3311300509948978,-9.83814699737553,,,,,,,,,,
acc,1778673129.0,128.0,-1.6574756221469145,1.335504326071003,-9.839227312693723,,,,,,,,,,
acc,1778673129.0,128.0,-1.657357992581275,1.3384544805795693,-9.838487480525593,,,,,,,,,,
acc,1778673129.0,128.0,-1.6579513645747423,1.3420877592698102,-9.83885476918296,,,,,,,,,,
acc,1778673129.0,128.0,-1.658894315379975,1.3463624601374744,-9.840283623745421,,,,,,,,,,
acc,1778673129.0,128.0,-1.6584088321757027,1.3499238779258944,-9.839569696181174,,,,,,,,,,
acc,1778673129.0,128.0,-1.6579277606243263,1.3516781055564924,-9.84099205410283,,,,,,,,,,
acc,1778673129.0,128.0,-1.6571315841321241,1.3523869922188065,-9.841656050771869,,,,,,,,,,
acc,1778673129.0,128.0,-1.6563426426056056,1.3544737989671436,-9.841994546194307,,,,,,,,,,
acc,1778673129.0,128.0,-1.6555608702996343,1.3551572807778376,-9.843004403943873,,,,,,,,,,
acc,1778673129.0,128.0,-1.6540762785117227,1.3565444752497688,-9.845105482843453,,,,,,,,,,
acc,1778673129.0,128.0,-1.6529601391916076,1.357919064094078,-9.846087071082541,,,,,,,,,,
acc,1778673129.0,128.0,-1.6528835424421284,1.3596006383639418,-9.848479604777113,,,,,,,,,,
acc,1778673129.0,128.0,-1.6531626126022028,1.3605924936551368,-9.848365637486129,,,,,,,,,,
acc,1778673129.0,128.0,-1.6530841759489683,1.3622497741015072,-9.848962629385875,,,,,,,,,,
acc,1778673129.0,128.0,-1.652332013779469,1.3653118598942322,-9.848134331055379,,,,,,,,,,
acc,1778673129.0,128.0,-1.6505217921933093,1.3658968547507995,-9.847668530450228,,,,,,,,,,
acc,1778673129.0,128.0,-1.64979291475838,1.366831495455303,-9.84795238964069,,,,,,,,,,
acc,1778673129.0,128.0,-1.649070660733273,1.3684320812313533,-9.848588640227515,,,,,,,,,,
acc,1778673129.0,128.0,-1.648674446433825,1.370018122263615,-9.850284003534988,,,,,,,,,,
acc,1778673129.0,128.0,-1.6479623560847572,1.3719447124989217,-9.850899066424839,,,,,,,,,,
acc,1778673129.0,128.0,-1.6469017748222625,1.3752736608239242,-9.85253794021027,,,,,,,,,,
acc,1778673129.0,128.0,-1.6462057929846345,1.3775074641192484,-9.852777550403012,,,,,,,,,,
acc,1778673129.0,128.0,-1.6465455447736996,1.3818152630092486,-9.854044392368595,,,,,,,,,,
acc,1778673129.0,128.0,-1.6489765036644446,1.3888526581765734,-9.854625284086554,,,,,,,,,,
acc,1778673129.0,128.0,-1.651030410319957,1.3968910070668255,-9.856265791577814,,,,,,,,,,
acc,1778673129.0,128.0,-1.652710691065975,1.4048563103718668,-9.857181458911281,,,,,,,,,,
acc,1778673129.0,128.0,-1.6543757028690758,1.411364860947621,-9.856988416673026,,,,,,,,,,
acc,1778673129.0,128.0,-1.6574454497596711,1.4205830001778188,-9.85860745005212,,,,,,,,,,
acc,1778673129.0,128.0,-1.6604873014368549,1.4293624111291205,-9.858081973132766,,,,,,,,,,
acc,1778673129.0,128.0,-1.6631465405249704,1.435967738803861,-9.857916242157978,,,,,,,,,,
acc,1778673129.0,128.0,-1.6654266438774474,1.4432229755943888,-9.85846194984282,,,,,,,,,,
acc,1778673129.0,128.0,-1.6683959693427313,1.4486729503530393,-9.856553433272843,,,,,,,,,,
acc,1778673129.0,128.0,-1.6713383121379919,1.4530440003843441,-9.855691659711226,,,,,,,,,,
acc,1778673129.0,128.0,-1.6735439757322301,1.4580497592729957,-9.85419877328604,,,,,,,,,,
acc,1778673129.0,128.0,-1.6750196726053193,1.4640749336423882,-9.851264093287469,,,,,,,,,,
acc,1778673129.0,128.0,-1.6768369213933125,1.4710747564760456,-9.849456478992884,,,,,,,,,,
acc,1778673129.0,128.0,-1.678992618366819,1.475242238206397,-9.84766529073867,,,,,,,,,,
acc,1778673129.0,128.0,-1.6807737644488487,1.4790168785926248,-9.846209846674782,,,,,,,,,,
acc,1778673129.0,128.0,-1.6821837632350518,1.4837866183554431,-9.842992801378694,,,,,,,,,,
acc,1778673129.0,128.0,-1.6818416073879667,1.4898973857523519,-9.843319149562467,,,,,,,,,,
acc,1778673129.0,128.0,-1.681502560758244,1.4945682528464483,-9.841548237707062,,,,,,,,,,
acc,1778673129.0,128.0,-1.6836158604227667,1.4964279423809348,-9.841142285841306,,,,,,,,,,
acc,1778673129.0,128.0,-1.6853549944662471,1.4993001327140132,-9.841804917330071,,,,,,,,,,
acc,1778673129.0,128.0,-1.6825702502341229,1.5025011848330796,-9.840402727287739,,,,,,,,,,
acc,1778673129.0,128.0,-1.6811951822730375,1.507412490329099,-9.839048773499776,,,,,,,,,,
acc,1778673129.0,128.0,-1.6812169806602024,1.511569233476822,-9.838701028969917,,,,,,,,,,
acc,1778673129.0,128.0,-1.6808836100998303,1.5160431655019153,-9.837362538749291,,,,,,,,,,
acc,1778673129.0,128.0,-1.6801983071482884,1.5201214805144687,-9.836994622906872,,,,,,,,,,
acc,1778673129.0,128.0,-1.6774604224456897,1.5241627353162428,-9.835991106448764,,,,,,,,,,
acc,1778673129.0,128.0,-1.676486749969717,1.531326464645018,-9.836026118223256,,,,,,,,,,
acc,1778673129.0,128.0,-1.677616228942921,1.537360192677589,-9.837090211893882,,,,,,,,,,
acc,1778673129.0,128.0,-1.6780255115473026,1.5409253295107384,-9.837434703360945,,,,,,,,,,
acc,1778673129.0,128.0,-1.6773661805313766,1.545132498644397,-9.837811558746653,,,,,,,,,,
acc,1778673129.0,128.0,-1.6774227735848368,1.5482720365995,-9.838894922233074,,,,,,,,,,
acc,1778673129.0,128.0,-1.6781887850069084,1.5524124451929944,-9.840323411908466,,,,,,,,,,
acc,1778673129.0,128.0,-1.6778829320778859,1.5551308584080874,-9.840993484616613,,,,,,,,,,
acc,1778673129.0,128.0,-1.6772248967014762,1.556440207200066,-9.842367410006196,,,,,,,,,,
acc,1778673129.0,128.0,-1.6790221063101523,1.5577376577590876,-9.84376434470646,,,,,,,,,,
acc,1778673129.0,128.0,-1.6821873553417968,1.5614370891726688,-9.845468052683522,,,,,,,,,,
acc,1778673129.0,128.0,-1.6846494030420867,1.56442846506596,-9.848895611520682,,,,,,,,,,
acc,1778673129.0,128.0,-1.6857047068613797,1.5656533252250087,-9.850233223554143,,,,,,,,,,
acc,1778673129.0,128.0,-1.685685526577371,1.5672220166859319,-9.854646889765736,,,,,,,,,,
acc,1778673129.0,128.0,-1.6870508915012135,1.5701608241453007,-9.855222306504297,,,,,,,,,,
acc,1778673129.0,128.0,-1.6898237144397295,1.5761966298588646,-9.85756732140048,,,,,,,,,,
acc,1778673129.0,128.0,-1.6908319985782516,1.5842718909246734,-9.85953606504821,,,,,,,,,,
acc,1778673129.0,128.0,-1.6914761585249802,1.5926287327550581,-9.861131947589072,,,,,,,,,,
acc,1778673129.0,128.0,-1.6938537975898798,1.5998447404003213,-9.861967901128475,,,,,,,,,,
acc,1778673129.0,128.0,-1.6951449363093438,1.6056108042761346,-9.86631042706657,,,,,,,,,,
acc,1778673129.0,128.0,-1.6961048657714493,1.6099401002214724,-9.867454293911427,,,,,,,,,,
acc,1778673129.0,128.0,-1.6973755487240856,1.6128456934317752,-9.871746964241956,,,,,,,,,,
acc,1778673129.0,128.0,-1.6986346848056109,1.6184936158553402,-9.87355135207394,,,,,,,,,,
acc,1778673129.0,128.0,-1.6988529698056698,1.6240902148294785,-9.875694314046875,,,,,,,,,,
acc,1778673129.0,128.0,-1.6980043768086477,1.6275416531879552,-9.875723499079532,,,,,,,,,,
acc,1778673129.0,128.0,-1.6957791241802351,1.6351503349491612,-9.874403551438053,,,,,,,,,,
acc,1778673129.0,128.0,-1.693929063590898,1.6433643047599091,-9.874089504033687,,,,,,,,,,
acc,1778673129.0,128.0,-1.6924507765317094,1.6511841656804551,-9.870974074235873,,,,,,,,,,
acc,1778673129.0,128.0,-1.6896015519581002,1.6592524338617634,-9.869697285272402,,,,,,,,,,
acc,1778673129.0,128.0,-1.685038885993685,1.6669279171637201,-9.868041633444442,,,,,,,,,,
acc,1778673129.0,128.0,-1.6801627198290758,1.6720843869679183,-9.865016655840314,,,,,,,,,,
acc,1778673129.0,128.0,-1.677744625934334,1.6754546665335002,-9.861628710489954,,,,,,,,,,
acc,1778673129.0,128.0,-1.674674076403013,1.6780843872680735,-9.861785711599559,,,,,,,,,,
acc,1778673129.0,128.0,-1.670921496742263,1.6793058404557148,-9.858107649783317,,,,,,,,,,
acc,1778673129.0,128.0,-1.6682679117005572,1.681226126766025,-9.856947779791529,,,,,,,,,,
acc,1778673129.0,128.0,-1.6663128784278158,1.6862526667686861,-9.855088517062121,,,,,,,,,,
acc,1778673129.0,128.0,-1.665085543447836,1.692972862596188,-9.853565617123754,,,,,,,,,,
acc,1778673129.0,128.0,-1.6635143996555122,1.699277029303793,-9.853085956037365,,,,,,,,,,
acc,1778673129.0,128.0,-1.660928123925838,1.7044945091295296,-9.851971718868574,,,,,,,,,,
acc,1778673129.0,128.0,-1.6593947591775093,1.705475969901714,-9.851116076533684,,,,,,,,,,
acc,1778673129.0,128.0,-1.6578753283259275,1.7099271773768705,-9.850978151261605,,,,,,,,,,
acc,1778673129.0,128.0,-1.6567246665262054,1.7119241742416453,-9.850486508473987,,,,,,,,,,
acc,1778673129.0,128.0,-1.6555844609488015,1.7166717568568541,-9.850744760307938,,,,,,,,,,
acc,1778673129.0,128.0,-1.6551290548523572,1.717187599527164,-9.850290732736113,,,,,,,,,,
acc,1778673129.0,128.0,-1.6550327488681633,1.7184086782126649,-9.851580172748326,,,,,,,,,,
acc,1778673129.0,128.0,-1.6552922888911443,1.721712964335057,-9.851118553668627,,,,,,,,,,
acc,1778673129.0,128.0,-1.655549470438177,1.7256616622298753,-9.852790927292165,,,,,,,,,,
acc,1778673129.0,128.0,-1.655094382305402,1.7302844103985306,-9.852318305919201,,,,,,,,,,
acc,1778673129.0,128.0,-1.654323953119806,1.7376338837530356,-9.853589321094407,,,,,,,,,,
acc,1778673129.0,128.0,-1.6542349632059676,1.745271542291948,-9.853819377242631,,,,,,,,,,
acc,1778673129.0,128.0,-1.6534723436801633,1.749716092778936,-9.854011848478946,,,,,,,,,,
acc,1778673129.0,128.0,-1.6512967889119807,1.7558595877085894,-9.856971312524792,,,,,,,,,,
acc,1778673129.0,128.0,-1.64985094543236,1.7633316267644383,-9.858235539547879,,,,,,,,,,
acc,1778673129.0,128.0,-1.648063269670325,1.7703807955106339,-9.860908143636802,,,,,,,,,,
acc,1778673129.0,128.0,-1.645617400488761,1.7787857727601741,-9.86107169263649,,,,,,,,,,
acc,1778673129.0,128.0,-1.643513224671578,1.7881437819602195,-9.861233755443884,,,,,,,,,,
acc,1778673129.0,128.0,-1.6411087023757889,1.7970617827801445,-9.862778716475045,,,,,,,,,,
acc,1778673129.0,128.0,-1.6376611358958668,1.8013906790786858,-9.862889772961708,,,,,,,,,,
acc,1778673129.0,128.0,-1.6338899270662637,1.8088039416957464,-9.863709752898133,,,,,,,,,,
acc,1778673129.0,128.0,-1.6305079585920763,1.8168597625223,-9.861434072328434,,,,,,,,,,
acc,1778673129.0,128.0,-1.6278666551666403,1.8265817207670438,-9.86194781300285,,,,,,,,,,
acc,1778673129.0,128.0,-1.6256043154033828,1.8379546669225362,-9.861391981748488,,,,,,,,,,
acc,1778673129.0,128.0,-1.6233625338332227,1.8492242655495328,-9.859456839585903,,,,,,,,,,
acc,1778673129.0,128.0,-1.621815561916286,1.8582971522355354,-9.857929738460767,,,,,,,,,,
acc,1778673129.0,128.0,-1.6199276766850956,1.8651932978917882,-9.855316116457562,,,,,,,,,,
acc,1778673129.0,128.0,-1.6184119177882446,1.8689030737275867,-9.853116710018698,,,,,,,,,,
acc,1778673129.0,128.0,-1.617264903662456,1.8722241674581497,-9.851611728164334,,,,,,,,,,
acc,1778673129.0,128.0,-1.6161283126120407,1.8772544146368078,-9.85111432797662,,,,,,,,,,
acc,1778673129.0,128.0,-1.6170963443793591,1.8818839894923958,-9.848562638547481,,,,,,,,,,
acc,1778673129.0,128.0,-1.6169906850995566,1.8826378585339123,-9.849548305487284,,,,,,,,,,
acc,1778673129.0,128.0,-1.6155016150499735,1.884449771472665,-9.848466215437629,,,,,,,,,,
acc,1778673129.0,128.0,-1.614736009020131,1.8893689229032535,-9.846684025854248,,,,,,,,,,
acc,1778673129.0,128.0,-1.6150067602067895,1.8956277442372869,-9.846621869597243,,,,,,,,,,
acc,1778673130.0,129.0,-1.6146006127650514,1.903923994344806,-9.845211401612575,,,,,,,,,,
acc,1778673130.0,129.0,-1.6152275651771895,1.9107604843746913,-9.84516262729488,,,,,,,,,,
acc,1778673130.0,129.0,-1.6148194112502954,1.9154405467329,-9.844368860114027,,,,,,,,,,
acc,1778673130.0,129.0,-1.6137050427265187,1.9190486806708333,-9.84500217127485,,,,,,,,,,
acc,1778673130.0,129.0,-1.6126008006230244,1.9236534270475532,-9.842896489077097,,,,,,,,,,
acc,1778673130.0,129.0,-1.610796651197554,1.9271869294107529,-9.842513779827401,,,,,,,,,,
acc,1778673130.0,129.0,-1.6083344671386088,1.9320726932611267,-9.842489519170408,,,,,,,,,,
acc,1778673130.0,129.0,-1.6065690864731852,1.936204126867467,-9.840051708014654,,,,,,,,,,
acc,1778673130.0,129.0,-1.6041453188772528,1.9399430467065073,-9.841824647586984,,,,,,,,,,
acc,1778673130.0,129.0,-1.6006786728954505,1.9443579231008157,-9.841771154809614,,,,,,,,,,
acc,1778673130.0,129.0,-1.5972435288032099,1.9508269844498147,-9.838949406308949,,,,,,,,,,
acc,1778673130.0,129.0,-1.5931651711507677,1.955852889637501,-9.842081239198354,,,,,,,,,,
acc,1778673130.0,129.0,-1.5887689032351109,1.9636018655518543,-9.83961163469211,,,,,,,,,,
acc,1778673130.0,129.0,-1.584767555672552,1.9712804254546787,-9.839968708001505,,,,,,,,,,
acc,1778673130.0,129.0,-1.5797376654106918,1.9785342383650049,-9.839577109541795,,,,,,,,,,
acc,1778673130.0,129.0,-1.5740790441796533,1.9885263710574308,-9.83823065826248,,,,,,,,,,
acc,1778673130.0,129.0,-1.569146281894007,1.9938841350011636,-9.838245318921047,,,,,,,,,,
acc,1778673130.0,129.0,-1.5632289442500935,1.9995481830668862,-9.836910969806576,,,,,,,,,,
acc,1778673130.0,129.0,-1.5563359782198298,2.0072550556047957,-9.836902128295941,,,,,,,,,,
acc,1778673130.0,129.0,-1.5495056495213435,2.0141819620956496,-9.835544490579771,,,,,,,,,,
acc,1778673130.0,129.0,-1.543056856374409,2.0210459228330895,-9.83625799000165,,,,,,,,,,
acc,1778673130.0,129.0,-1.5366666642990725,2.0292673750832635,-9.839414280161096,,,,,,,,,,
acc,1778673130.0,129.0,-1.531044473414016,2.038088556139146,-9.839063214223538,,,,,,,,,,
acc,1778673130.0,129.0,-1.5251184012910308,2.0450902452245456,-9.842513480337844,,,,,,,,,,
acc,1778673130.0,129.0,-1.5188912184279237,2.0523832707705734,-9.845577431634961,,,,,,,,,,
acc,1778673130.0,129.0,-1.5137855172416466,2.057160758271135,-9.845489836792117,,,,,,,,,,
acc,1778673130.0,129.0,-1.5069868795822101,2.0605104611753835,-9.844728599660977,,,,,,,,,,
acc,1778673130.0,129.0,-1.501634392988948,2.065569066638162,-9.848482345411075,,,,,,,,,,
acc,1778673130.0,129.0,-1.498069877861648,2.072321036539375,-9.850888607254236,,,,,,,,,,
acc,1778673130.0,129.0,-1.4945377539742812,2.0797215829947002,-9.853237508704646,,,,,,,,,,
acc,1778673130.0,129.0,-1.4910377269831876,2.090178583257292,-9.855920036224914,,,,,,,,,,
acc,1778673130.0,129.0,-1.4858301725364862,2.0995111592698015,-9.85644838025721,,,,,,,,,,
acc,1778673130.0,129.0,-1.479285568945102,2.1038603891564702,-9.85590702874621,,,,,,,,,,
acc,1778673130.0,129.0,-1.471416066158792,2.105756326034572,-9.851572454704224,,,,,,,,,,
acc,1778673130.0,129.0,-1.464647474676547,2.109374366956009,-9.849762038298113,,,,,,,,,,
acc,1778673130.0,129.0,-1.4586503320390687,2.1101552940630026,-9.847258140760696,,,,,,,,,,
acc,1778673130.0,129.0,-1.4519977445410817,2.108515362907516,-9.844031569490594,,,,,,,,,,
acc,1778673130.0,129.0,-1.4478548844264683,2.1106884668116987,-9.839804909382616,,,,,,,,,,
acc,1778673130.0,129.0,-1.4440691384660838,2.116675459647803,-9.836326590151721,,,,,,,,,,
acc,1778673130.0,129.0,-1.441382697596006,2.125412284033492,-9.832524917113075,,,,,,,,,,
acc,1778673130.0,129.0,-1.43872066878413,2.1347441539671888,-9.829822684809136,,,,,,,,,,
acc,1778673130.0,129.0,-1.438177124651122,2.142606853004435,-9.82505071360593,,,,,,,,,,
acc,1778673130.0,129.0,-1.4379579871922483,2.1486587699298676,-9.823800771327717,,,,,,,,,,
acc,1778673130.0,129.0,-1.4367114410174404,2.155010654026317,-9.817663656812828,,,,,,,,,,
acc,1778673130.0,129.0,-1.434766289744946,2.1626891885861133,-9.813392632505359,,,,,,,,,,
acc,1778673130.0,129.0,-1.4331937851907743,2.1702979472447788,-9.811219228767532,,,,,,,,,,
acc,1778673130.0,129.0,-1.431280599341277,2.174358898700299,-9.806616309731748,,,,,,,,,,
acc,1778673130.0,129.0,-1.4293847988751012,2.177353538595323,-9.805888845194065,,,,,,,,,,
acc,1778673130.0,129.0,-1.426476825760727,2.1782266713289333,-9.80342865854425,,,,,,,,,,
acc,1778673130.0,129.0,-1.4228853451641352,2.180476231606916,-9.801310295363075,,,,,,,,,,
acc,1778673130.0,129.0,-1.4193265008463838,2.184089720729721,-9.799956618121387,,,,,,,,,,
acc,1778673130.0,129.0,-1.4165099288715233,2.1915040098050054,-9.795491538339823,,,,,,,,,,
acc,1778673130.0,129.0,-1.414428884108532,2.200590256896796,-9.794865166131926,,,,,,,,,,
acc,1778673130.0,129.0,-1.4126862174996195,2.2103038686442087,-9.793179591446524,,,,,,,,,,
acc,1778673130.0,129.0,-1.410284957554882,2.2188643170557985,-9.7946685317617,,,,,,,,,,
acc,1778673130.0,129.0,-1.4085799473772989,2.223868301041592,-9.796463418371985,,,,,,,,,,
acc,1778673130.0,129.0,-1.4068904308620298,2.2267325095925123,-9.797177091105299,,,,,,,,,,
acc,1778673130.0,129.0,-1.403831896307224,2.229925661546599,-9.797529316822576,,,,,,,,,,
acc,1778673130.0,129.0,-1.4008011550771668,2.2390177366578135,-9.798623768810545,,,,,,,,,,
acc,1778673130.0,129.0,-1.3977979546100876,2.2480271908302516,-9.801838073265635,,,,,,,,,,
acc,1778673130.0,129.0,-1.3969163481824,2.2548604713086444,-9.801154029220873,,,,,,,,,,
acc,1778673130.0,129.0,-1.3960427530337431,2.2619866185997974,-9.807824006215814,,,,,,,,,,
acc,1778673130.0,129.0,-1.3955320672252591,2.26659874429236,-9.809854308991456,,,,,,,,,,
acc,1778673130.0,129.0,-1.3950260220890525,2.270139558915537,-9.812931065621214,,,,,,,,,,
acc,1778673130.0,129.0,-1.3941696045939624,2.2705244940775255,-9.815979863339724,,,,,,,,,,
acc,1778673130.0,129.0,-1.3926110368482811,2.270905931280681,-9.820740288895765,,,,,,,,,,
acc,1778673130.0,129.0,-1.3903922028351152,2.269189598768421,-9.824712019727754,,,,,,,,,,
acc,1778673130.0,129.0,-1.3881935316722203,2.268518262854051,-9.831132427658313,,,,,,,,,,
acc,1778673130.0,129.0,-1.3873992019585395,2.269947331004579,-9.834690256280457,,,,,,,,,,
acc,1778673130.0,129.0,-1.3859021577940678,2.270653480381703,-9.838890192698273,,,,,,,,,,
acc,1778673130.0,129.0,-1.382679384793865,2.2758967817416647,-9.842342031081124,,,,,,,,,,
acc,1778673130.0,129.0,-1.3791664301621296,2.2856005109995476,-9.842638798542309,,,,,,,,,,
acc,1778673130.0,129.0,-1.376714798280885,2.2917373957687865,-9.844707696278842,,,,,,,,,,
acc,1778673130.0,129.0,-1.3742854447161983,2.29781851382092,-9.850271962468168,,,,,,,,,,
acc,1778673130.0,129.0,-1.370848766974025,2.3014305918721187,-9.853265411367971,,,,,,,,,,
acc,1778673130.0,129.0,-1.3670883479351092,2.306039255607635,-9.85694158193248,,,,,,,,,,
acc,1778673130.0,129.0,-1.3633621003419047,2.3154690760539847,-9.860584346628766,,,,,,,,,,
acc,1778673130.0,129.0,-1.3600246845344761,2.32066010278458,-9.86181574151114,,,,,,,,,,
acc,1778673130.0,129.0,-1.3542683218806004,2.324739054445389,-9.860622175582156,,,,,,,,,,
acc,1778673130.0,129.0,-1.3478543445398405,2.330520281879952,-9.855605819526197,,,,,,,,,,
acc,1778673130.0,129.0,-1.341498651894538,2.336603936278155,-9.853403780518587,,,,,,,,,,
acc,1778673130.0,129.0,-1.3345262760293226,2.342632307670974,-9.848098048152048,,,,,,,,,,
acc,1778673130.0,129.0,-1.329356591785958,2.3451272330584967,-9.845964233296899,,,,,,,,,,
acc,1778673130.0,129.0,-1.3235239525410687,2.3507231903060406,-9.841684516448586,,,,,,,,,,
acc,1778673130.0,129.0,-1.3177443152922914,2.3597469616835363,-9.838153622610923,,,,,,,,,,
acc,1778673130.0,129.0,-1.3137565310852557,2.3662749618513694,-9.83429984363117,,,,,,,,,,
acc,1778673130.0,129.0,-1.3111893553310383,2.3723886703219383,-9.834705185917166,,,,,,,,,,
acc,1778673130.0,129.0,-1.3100653731248957,2.373903253822639,-9.833757977340538,,,,,,,,,,
acc,1778673130.0,129.0,-1.3092710721134708,2.3701860760483537,-9.833813281866599,,,,,,,,,,
acc,1778673130.0,129.0,-1.3084839890247304,2.3685969712360126,-9.833868083832815,,,,,,,,,,
acc,1778673130.0,129.0,-1.309443390950439,2.370146010428468,-9.83321245517181,,,,,,,,,,
acc,1778673130.0,129.0,-1.3103940746587173,2.372745876783317,-9.836360926163513,,,,,,,,,,
acc,1778673130.0,129.0,-1.3103067193254023,2.375322117794539,-9.832913902883998,,,,,,,,,,
acc,1778673130.0,129.0,-1.3105751286626992,2.382063555234213,-9.832621906770221,,,,,,,,,,
acc,1778673130.0,129.0,-1.310841098927382,2.385584525265913,-9.831942098844754,,,,,,,,,,
acc,1778673130.0,129.0,-1.3117790814707664,2.3883990614837547,-9.831019998820917,,,,,,,,,,
acc,1778673130.0,129.0,-1.3141284057059706,2.391507498124098,-9.832520049003223,,,,,,,,,,
acc,1778673130.0,129.0,-1.316101419534773,2.396681991515214,-9.833651497162274,,,,,,,,,,
acc,1778673130.0,129.0,-1.318056504315186,2.3993956835288945,-9.831613465745761,,,,,,,,,,
acc,1778673130.0,129.0,-1.3196388611974217,2.402084715849512,-9.833072628652447,,,,,,,,,,
acc,1778673130.0,129.0,-1.318438097167897,2.4015901146128047,-9.832104751901513,,,,,,,,,,
acc,1778673130.0,129.0,-1.3179226829207265,2.4021649113804777,-9.830790708606395,,,,,,,,,,
acc,1778673130.0,129.0,-1.3184768467214867,2.402734484890761,-9.831582909746253,,,,,,,,,,
acc,1778673130.0,129.0,-1.320765307441389,2.404328282655869,-9.830912543329857,,,,,,,,,,
acc,1778673130.0,129.0,-1.32303297260356,2.4108061370804736,-9.831313172120224,,,,,,,,,,
acc,1778673130.0,129.0,-1.324570107633075,2.4151308228072295,-9.833130025609915,,,,,,,,,,
acc,1778673130.0,129.0,-1.3264482362783905,2.4173219059766393,-9.831806665511436,,,,,,,,,,
acc,1778673130.0,129.0,-1.3289837363842791,2.42158738201407,-9.836423270735398,,,,,,,,,,
acc,1778673130.0,129.0,-1.3304667960037793,2.426488535357531,-9.83606389015275,,,,,,,,,,
acc,1778673130.0,129.0,-1.3305520079478943,2.4289313712023266,-9.83957690589528,,,,,,,,,,
acc,1778673130.0,129.0,-1.3299265129251914,2.4320264469355948,-9.840253762203279,,,,,,,,,,
acc,1778673130.0,129.0,-1.3293067018619034,2.438927033513796,-9.841669903905993,,,,,,,,,,
acc,1778673130.0,129.0,-1.32904748488061,2.4443805426030485,-9.844493042202307,,,,,,,,,,
acc,1778673130.0,129.0,-1.3287906234397249,2.4515238366731418,-9.84310191916713,,,,,,,,,,
acc,1778673130.0,129.0,-1.3285360961341282,2.4593121512803804,-9.8483258154996,,,,,,,,,,
acc,1778673130.0,129.0,-1.3272544817055008,2.468414063308521,-9.848568207487642,,,,,,,,,,
acc,1778673130.0,129.0,-1.3270139135313974,2.4770782941479115,-9.848808396826305,,,,,,,,,,
acc,1778673130.0,129.0,-1.3253911696122234,2.483569488385959,-9.850111307026133,,,,,,,,,,
acc,1778673130.0,129.0,-1.3209789356139385,2.4858130982502145,-9.84962754137265,,,,,,,,,,
acc,1778673130.0,129.0,-1.3169617579671422,2.4873618818484404,-9.850213066171904,,,,,,,,,,
acc,1778673130.0,129.0,-1.3161047885570096,2.491665333253461,-9.852248638941974,,,,,,,,,,
acc,1778673130.0,129.0,-1.3163205100406792,2.4969945730105074,-9.851780945418952,,,,,,,,,,
acc,1778673130.0,129.0,-1.3168892330070083,2.5109720577281167,-9.851317501891383,,,,,,,,,,
acc,1778673130.0,129.0,-1.3167428552753009,2.530040534249671,-9.849473907917801,,,,,,,,,,
acc,1778673130.0,129.0,-1.3138290749687198,2.5426883257187596,-9.848995934397806,,,,,,,,,,
acc,1778673131.0,130.0,-1.3116162017721231,2.549293245198292,-9.846498998553574,,,,,,,,,,
acc,1778673131.0,130.0,-1.311872711662057,2.5512945760065757,-9.845444617977458,,,,,,,,,,
acc,1778673131.0,130.0,-1.3090031870212124,2.549124616808426,-9.846103657024708,,,,,,,,,,
acc,1778673131.0,130.0,-1.3047398728777522,2.548003776376027,-9.84288757670927,,,,,,,,,,
acc,1778673131.0,130.0,-1.3008702618305374,2.5479225212226675,-9.843179386722126,,,,,,,,,,
acc,1778673131.0,130.0,-1.298100717966553,2.548906907940802,-9.844888410285414,,,,,,,,,,
acc,1778673131.0,130.0,-1.2963857413767432,2.5533610147647936,-9.84136389658378,,,,,,,,,,
acc,1778673131.0,130.0,-1.2953962816494906,2.557774646506661,-9.844154321250691,,,,,,,,,,
acc,1778673131.0,130.0,-1.2916115771025707,2.561793209195569,-9.844079658407964,,,,,,,,,,
acc,1778673131.0,130.0,-1.2875063029136136,2.5678695581942637,-9.842656797488416,,,,,,,,,,
acc,1778673131.0,130.0,-1.2848581991847763,2.5742456523462596,-9.843660637257926,,,,,,,,,,
acc,1778673131.0,130.0,-1.2822341591392161,2.583332547869126,-9.842241584041282,,,,,,,,,,
acc,1778673131.0,130.0,-1.2803083932939638,2.5947861348367773,-9.839806025908997,,,,,,,,,,
acc,1778673131.0,130.0,-1.2777256979611276,2.606135641482283,-9.838812465297064,,,,,,,,,,
acc,1778673131.0,130.0,-1.2751664719364657,2.6135483773737795,-9.83811190636088,,,,,,,,,,
acc,1778673131.0,130.0,-1.2743698346328742,2.6181250199839847,-9.836388313452584,,,,,,,,,,
acc,1778673131.0,130.0,-1.2735804364821721,2.6205657704701624,-9.836029250531613,,,,,,,,,,
acc,1778673131.0,130.0,-1.2703489463853697,2.6219194380258393,-9.834715039137054,,,,,,,,,,
acc,1778673131.0,130.0,-1.2681762213317493,2.6253551081603455,-9.832312372307813,,,,,,,,,,
acc,1778673131.0,130.0,-1.267088143624608,2.6291145196606576,-9.831351404111107,,,,,,,,,,
acc,1778673131.0,130.0,-1.2649450499347485,2.6338691780056984,-9.828979303096585,,,,,,,,,,
acc,1778673131.0,130.0,-1.2628214308323915,2.6413848662919563,-9.826628757690662,,,,,,,,,,
acc,1778673131.0,130.0,-1.2617820128439652,2.647092916714865,-9.822915210193454,,,,,,,,,,
acc,1778673131.0,130.0,-1.2607520401899464,2.6489154610734613,-9.825518309753578,,,,,,,,,,
acc,1778673131.0,130.0,-1.2607608270869064,2.651076414581081,-9.82319921487081,,,,,,,,,,
acc,1778673131.0,130.0,-1.2621538959572165,2.651123427664269,-9.82296000310501,,,,,,,,,,
acc,1778673131.0,130.0,-1.2625049057712292,2.652199413580718,-9.821409591988216,,,,,,,,,,
acc,1778673131.0,130.0,-1.2635626585447943,2.6511713183226635,-9.820228231444228,,,,,,,,,,
acc,1778673131.0,130.0,-1.2656402085079916,2.645999461870272,-9.819412576946801,,,,,,,,,,
acc,1778673131.0,130.0,-1.2663145085803362,2.642258973697941,-9.819243269241218,,,,,,,,,,
acc,1778673131.0,130.0,-1.2662727485609913,2.639581875904379,-9.819040005698152,,,,,,,,,,
acc,1778673131.0,130.0,-1.268680633336444,2.636929105267151,-9.818483618378293,,,,,,,,,,
acc,1778673131.0,130.0,-1.270356704697267,2.633626011535026,-9.822511359331719,,,,,,,,,,
acc,1778673131.0,130.0,-1.2723725162274115,2.6331216661998273,-9.822278398203933,,,,,,,,,,
acc,1778673131.0,130.0,-1.2729856388923582,2.637839911052309,-9.82346741929413,,,,,,,,,,
acc,1778673131.0,130.0,-1.2728832573931466,2.6540161892358682,-9.823935702951866,,,,,,,,,,
acc,1778673131.0,130.0,-1.2724268353881178,2.668661100443611,-9.820956560248092,,,,,,,,,,
