sensor,time,t,ax,ay,az,wx,wy,wz,lat,lon,alt,v_kmh,satellites,x,y
acc,1778673185.0,184.0,0.0,0.164062,-9.796875,,,,,,,,,,
acc,1778673185.0,184.0,0.0,0.164062,-9.796875,,,,,,,,,,
acc,1778673185.0,184.0,0.0,0.164062,-9.807109067235034,,,,,,,,,,
acc,1778673185.0,184.0,0.0,0.164062,-9.813407692146638,,,,,,,,,,
acc,1778673185.0,184.0,0.0,0.164062,-9.817675119249525,,,,,,,,,,
acc,1778673185.0,184.0,0.0,0.164062,-9.814782883360905,,,,,,,,,,
acc,1778673185.0,184.0,0.0,0.164062,-9.812595634693567,,,,,,,,,,
acc,1778673185.0,184.0,0.0,0.16023312919410412,-9.811308892462923,,,,,,,,,,
acc,1778673185.0,184.0,0.0,0.16060943841867137,-9.809890300100955,,,,,,,,,,
acc,1778673185.0,184.0,0.0,0.16091863653220576,-9.80872469996798,,,,,,,,,,
acc,1778673185.0,184.0,0.0,0.1611772261608842,-9.811284737431818,,,,,,,,,,
acc,1778673185.0,184.0,0.0,0.16139670912832493,-9.813457618928242,,,,,,,,,,
acc,1778673185.0,184.0,0.002764645457471335,0.16158534730100468,-9.81228397031596,,,,,,,,,,
acc,1778673185.0,184.0,0.002581707803470803,0.16174922836333183,-9.811264352819421,,,,,,,,,,
acc,1778673185.0,184.0,0.0024212884413446862,0.16189293686132641,-9.810370242805268,,,,,,,,,,
acc,1778673185.0,184.0,0.004567542221071957,0.15996070533774065,-9.80980854660069,,,,,,,,,,
acc,1778673185.0,184.0,0.006478837650572412,0.16018795302469516,-9.811472774088276,,,,,,,,,,
acc,1778673185.0,184.0,0.008191885207717993,0.1585433160604553,-9.810910658069977,,,,,,,,,,
acc,1778673185.0,184.0,0.007782095921291918,0.15706074467523184,-9.810403934007446,,,,,,,,,,
acc,1778673185.0,184.0,0.007410763740895079,0.15739481809601147,-9.811808702595062,,,,,,,,,,
acc,1778673185.0,184.0,0.00707269223019053,0.15609518716610377,-9.811305630009528,,,,,,,,,,
acc,1778673185.0,184.0,0.006763580910757667,0.15490688641079223,-9.810845652088405,,,,,,,,,,
acc,1778673185.0,184.0,0.006479840146739325,0.15529095499202925,-9.810259565583387,,,,,,,,,,
acc,1778673185.0,184.0,0.006218450104559994,0.15564476986595696,-9.809719646066366,,,,,,,,,,
acc,1778673185.0,184.0,0.00597685201193494,0.15308829032112348,-9.809372363414905,,,,,,,,,,
acc,1778673185.0,184.0,0.007216751583012459,0.1534995412524742,-9.80890401201012,,,,,,,,,,
acc,1778673185.0,184.0,0.008369540427140297,0.1538818992247302,-9.808468565231072,,,,,,,,,,
acc,1778673185.0,184.0,0.009444165673933313,0.15300742607263434,-9.808199402974328,,,,,,,,,,
acc,1778673185.0,184.0,0.009123951360862246,0.1533822429615645,-9.807815437249396,,,,,,,,,,
acc,1778673185.0,184.0,0.008824028124223594,0.152577658004955,-9.807584200682658,,,,,,,,,,
acc,1778673185.0,184.0,0.009788740421346386,0.15182243739477383,-9.80736715135854,,,,,,,,,,
acc,1778673185.0,184.0,0.010696090270926616,0.15220181316121148,-9.808373799205544,,,,,,,,,,
acc,1778673185.0,184.0,0.010373684526109359,0.1514996216311176,-9.808144934076221,,,,,,,,,,
acc,1778673185.0,184.0,0.011215369139367498,0.15083674884229892,-9.807928884095501,,,,,,,,,,
acc,1778673185.0,184.0,0.012011263167918658,0.15020993864997806,-9.80872942216436,,,,,,,,,,
acc,1778673185.0,184.0,0.012765056467777421,0.14961628509020106,-9.809487613846846,,,,,,,,,,
acc,1778673185.0,184.0,0.01348005245192994,0.14905318654409044,-9.809250886946305,,,,,,,,,,
acc,1778673185.0,184.0,0.013122175911569625,0.14851830691776075,-9.809959392475191,,,,,,,,,,
acc,1778673185.0,184.0,0.012781772577593784,0.1480095426162643,-9.809721295118461,,,,,,,,,,
acc,1778673185.0,184.0,0.012457571660580934,0.14841670221580527,-9.809395457631341,,,,,,,,,,
acc,1778673185.0,184.0,0.012148422857355755,0.1488049580667742,-9.80908474824126,,,,,,,,,,
acc,1778673185.0,184.0,0.012802276070523724,0.1491756210165042,-9.808788117916825,,,,,,,,,,
acc,1778673185.0,184.0,0.012497610787838995,0.1495298832458277,-9.80850461259185,,,,,,,,,,
acc,1778673185.0,184.0,0.012206115602775593,0.14986883139636079,-9.808233362659985,,,,,,,,,,
acc,1778673185.0,184.0,0.011926936944620221,0.14938936886046258,-9.808062911987944,,,,,,,,,,
acc,1778673185.0,184.0,0.011659293608435883,0.14892971713231445,-9.807899504129976,,,,,,,,,,
acc,1778673185.0,184.0,0.011402469247850435,0.14926304254654707,-9.80860315951439,,,,,,,,,,
acc,1778673185.0,184.0,0.011155805783353193,0.14958318040766028,-9.8083494505681,,,,,,,,,,
acc,1778673185.0,184.0,0.010918697598439255,0.14989091672898983,-9.808105569830131,,,,,,,,,,
acc,1778673185.0,184.0,0.010690586415888194,0.15100307223815124,-9.807870943077116,,,,,,,,,,
acc,1778673185.0,184.0,0.010470956762971498,0.15127135759315632,-9.80764504011281,,,,,,,,,,
acc,1778673185.0,184.0,0.010259331948098322,0.15152986475661148,-9.807427370629815,,,,,,,,,,
acc,1778673185.0,184.0,0.010055270482846766,0.15177913302217047,-9.807217480529419,,,,,,,,,,
acc,1778673185.0,184.0,0.00985836289290082,0.15201966257712943,-9.807856390176676,,,,,,,,,,
acc,1778673185.0,184.0,0.009668228869452894,0.15225191798208887,-9.808473321509217,,,,,,,,,,
acc,1778673185.0,184.0,0.009484514719406742,0.15247633128562071,-9.80906942216148,,,,,,,,,,
acc,1778673185.0,184.0,0.010038434533074056,0.15269330481783952,-9.808841048045581,,,,,,,,,,
acc,1778673185.0,184.0,0.009853087266197531,0.15290321370084545,-9.808620109781426,,,,,,,,,,
acc,1778673185.0,184.0,0.0096736688078198,0.15310640810896048,-9.808406238795254,,,,,,,,,,
acc,1778673185.0,184.0,0.010201603326152683,0.15330321530737626,-9.808199090626161,,,,,,,,,,
acc,1778673185.0,184.0,0.010020754563307055,0.1534939414941508,-9.808760075260405,,,,,,,,,,
acc,1778673185.0,184.0,0.009845399940396612,0.15367887346733516,-9.809304017322537,,,,,,,,,,
acc,1778673185.0,184.0,0.009675284474468089,0.15325083103759166,-9.809156750876104,,,,,,,,,,
acc,1778673185.0,184.0,0.010176789736112463,0.15343533134741577,-9.808947154036973,,,,,,,,,,
acc,1778673185.0,184.0,0.010005209924655048,0.153614496079233,-9.808743618544224,,,,,,,,,,
acc,1778673185.0,184.0,0.0098385135449494,0.15378856150051526,-9.80854587599226,,,,,,,,,,
acc,1778673185.0,184.0,0.009676487619705456,0.15395775000350514,-9.809061310308389,,,,,,,,,,
acc,1778673185.0,184.0,0.010154953310879318,0.15412227110818422,-9.808862888334012,,,,,,,,,,
acc,1778673185.0,184.0,0.010620419685614885,0.154282322379519,-9.808669857237353,,,,,,,,,,
acc,1778673185.0,184.0,0.0110734289836567,0.15443809026741265,-9.808481992149037,,,,,,,,,,
acc,1778673185.0,184.0,0.011514493359333956,0.15458975087685567,-9.808299080676253,,,,,,,,,,
acc,1778673185.0,184.0,0.011944096937753317,0.15473747067495078,-9.80812092205004,,,,,,,,,,
acc,1778673185.0,184.0,0.0123626977047256,0.15433872769649348,-9.808007620627263,,,,,,,,,,
acc,1778673185.0,184.0,0.012770729245902787,0.15448732340657642,-9.807837486580251,,,,,,,,,,
acc,1778673185.0,184.0,0.013168602348977054,0.15410019413390957,-9.807730698808799,,,,,,,,,,
acc,1778673185.0,184.0,0.013556706481358028,0.15424950702342347,-9.808212030191596,,,,,,,,,,
acc,1778673185.0,184.0,0.013935411154474369,0.15387320456935008,-9.807463686443079,,,,,,,,,,
acc,1778673185.0,184.0,0.014305067184719843,0.15350589336032872,-9.80736537244761,,,,,,,,,,
acc,1778673185.0,184.0,0.014666007860064566,0.15314724222251874,-9.807269376394476,,,,,,,,,,
acc,1778673185.0,184.0,0.015018550020463373,0.15330496945349303,-9.807119169102677,,,,,,,,,,
acc,1778673185.0,184.0,0.014803395163277732,0.15345907403534825,-9.80697241174346,,,,,,,,,,
acc,1778673185.0,184.0,0.014593118913662701,0.15360968431644942,-9.806828982087708,,,,,,,,,,
acc,1778673185.0,184.0,0.01438755060549251,0.153756922536342,-9.806688763723873,,,,,,,,,,
acc,1778673185.0,184.0,0.014186527600381022,0.1539009051847061,-9.807152009026298,,,,,,,,,,
acc,1778673185.0,184.0,0.013502614059526866,0.1535544625734432,-9.80706370347014,,,,,,,,,,
acc,1778673185.0,184.0,0.013854109418631596,0.15369896333139005,-9.806923587350239,,,,,,,,,,
acc,1778673185.0,184.0,0.0141981122048662,0.15336062290431304,-9.807319536339318,,,,,,,,,,
acc,1778673185.0,184.0,0.014534868845853954,0.1530294093493882,-9.807707144977677,,,,,,,,,,
acc,1778673185.0,184.0,0.014339460159001543,0.15270509106393548,-9.807614028974402,,,,,,,,,,
acc,1778673185.0,184.0,0.014148072605583397,0.1523874466225272,-9.807522829118666,,,,,,,,,,
acc,1778673185.0,184.0,0.01396057857090382,0.15254216092014544,-9.807381721244987,,,,,,,,,,
acc,1778673185.0,184.0,0.013776855927404151,0.15269376318202108,-9.807808928157408,,,,,,,,,,
acc,1778673185.0,184.0,0.013596787742807696,0.15238284904062568,-9.807717070750215,,,,,,,,,,
acc,1778673185.0,184.0,0.012963835172813899,0.15253447829009711,-9.807576309229425,,,,,,,,,,
acc,1778673185.0,184.0,0.012796631400526972,0.15268315690945022,-9.80799248851186,,,,,,,,,,
acc,1778673185.0,184.0,0.013133214065798681,0.1528289733034072,-9.807850021296893,,,,,,,,,,
acc,1778673185.0,184.0,0.012965978518551443,0.1529720122699112,-9.807262598709169,,,,,,,,,,
acc,1778673185.0,184.0,0.012801895091873189,0.15311235518240093,-9.807131144473862,,,,,,,,,,
acc,1778673185.0,184.0,0.013132195521807772,0.15280788688146044,-9.807051272155865,,,,,,,,,,
acc,1778673185.0,184.0,0.01296800290429315,0.15294859772357897,-9.807461281572131,,,,,,,,,,
acc,1778673185.0,184.0,0.012806811350048707,0.15308673669525416,-9.807863796959625,,,,,,,,,,
acc,1778673185.0,184.0,0.012648536698237787,0.15322237592117946,-9.80825902847844,,,,,,,,,,
acc,1778673185.0,184.0,0.01249309802208829,0.15335558475449887,-9.808119129424648,,,,,,,,,,
acc,1778673185.0,184.0,0.012340417474653663,0.1534864299089878,-9.807981712762029,,,,,,,,,,
acc,1778673185.0,184.0,0.012190420143292153,0.1536149755837623,-9.807846711067157,,,,,,,,,,
acc,1778673185.0,184.0,0.012043033912295154,0.15374128358100472,-9.807714059433927,,,,,,,,,,
acc,1778673185.0,184.0,0.011898189333137557,0.1538654134171574,-9.807583695356769,,,,,,,,,,
acc,1778673185.0,184.0,0.011755819501861624,0.153987422428003,-9.807455558620292,,,,,,,,,,
acc,1778673185.0,184.0,0.011615859943141384,0.1541073658680198,-9.807329591194945,,,,,,,,,,
acc,1778673185.0,184.0,0.011478248500607106,0.154225297004372,-9.807205737138295,,,,,,,,,,
acc,1778673185.0,184.0,0.011342925233039399,0.15434126720587016,-9.807083942501608,,,,,,,,,,
acc,1778673185.0,184.0,0.01120983231607008,0.15404282092003352,-9.807009986534712,,,,,,,,,,
acc,1778673185.0,184.0,0.011078913949052348,0.15415983378222656,-9.80689162117032,,,,,,,,,,
acc,1778673185.0,184.0,0.010950116266786263,0.15427495120836848,-9.806775173150523,,,,,,,,,,
acc,1778673185.0,184.0,0.010823387255807103,0.15438821968730967,-9.806660595449125,,,,,,,,,,
acc,1778673185.0,184.0,0.010698676674964193,0.154499684123833,-9.80654784264231,,,,,,,,,,
acc,1778673185.0,184.0,0.010575935980036148,0.1546093879060315,-9.806436870840477,,,,,,,,,,
acc,1778673185.0,184.0,0.01090135602209515,0.15431575669156894,-9.806372259115758,,,,,,,,,,
acc,1778673185.0,184.0,0.010777339383712716,0.1540266887443689,-9.806308651509653,,,,,,,,,,
acc,1778673185.0,184.0,0.011097797713177515,0.1537420774471278,-9.80664434482587,,,,,,,,,,
acc,1778673185.0,184.0,0.01097256681773042,0.15385853056473206,-9.80653410459334,,,,,,,,,,
acc,1778673185.0,184.0,0.010849236657127658,0.15397321617522416,-9.806425537569728,,,,,,,,,,
acc,1778673185.0,184.0,0.01116511855538907,0.15369255313866417,-9.806362338966293,,,,,,,,,,
acc,1778673185.0,184.0,0.011040583516037598,0.15380821330532726,-9.806256517776339,,,,,,,,,,
acc,1778673185.0,184.0,0.010917896155311961,0.15353148999426136,-9.806195671642291,,,,,,,,,,
acc,1778673185.0,184.0,0.011229501339066321,0.153648081431085,-9.806568218361091,,,,,,,,,,
acc,1778673185.0,184.0,0.011105616979182704,0.15376296824545332,-9.806461282343577,,,,,,,,,,
acc,1778673185.0,184.0,0.011412946657263893,0.15387618740228473,-9.806355898572562,,,,,,,,,,
acc,1778673186.0,185.0,0.011287915855352685,0.15360263468636157,-9.806294824595785,,,,,,,,,,
acc,1778673186.0,185.0,0.011164674527956405,0.15333299713059215,-9.806234624726214,,,,,,,,,,
acc,1778673186.0,185.0,0.01146824231701369,0.1534497459452095,-9.806132776949179,,,,,,,,,,
acc,1778673186.0,185.0,0.01134385757243701,0.15356484662703146,-9.805651064394734,,,,,,,,,,
acc,1778673186.0,185.0,0.01122121696744605,0.15329825513913528,-9.805978502224612,,,,,,,,,,
acc,1778673186.0,185.0,0.011100284651972941,0.1534142572263387,-9.805880392758755,,,,,,,,,,
acc,1778673186.0,185.0,0.01098102581800751,0.15352865405735375,-9.806245289725261,,,,,,,,,,
acc,1778673186.0,185.0,0.010863406661282791,0.15364147805829836,-9.806144923366597,,,,,,,,,,
acc,1778673186.0,185.0,0.01074739434463029,0.15375276072761918,-9.806045928150963,,,,,,,,,,
acc,1778673186.0,185.0,0.011048885964964185,0.15348819443829853,-9.80598986762381,,,,,,,,,,
acc,1778673186.0,185.0,0.010931576462326129,0.15322719753666944,-9.805934563435478,,,,,,,,,,
acc,1778673186.0,185.0,0.010815839962507692,0.15334190945563664,-9.80583864660541,,,,,,,,,,
acc,1778673186.0,185.0,0.010701646014532598,0.15345509247851372,-9.805372830113432,,,,,,,,,,
acc,1778673186.0,185.0,0.010588965005102653,0.15356677595644114,-9.805735787943824,,,,,,,,,,
acc,1778673186.0,185.0,0.010477768129261567,0.15367698843937347,-9.8056427390069,,,,,,,,,,
acc,1778673186.0,185.0,0.010368027362277312,0.15378575770394812,-9.805550908533897,,,,,,,,,,
acc,1778673186.0,185.0,0.010667785400665325,0.15352584571967656,-9.805501078611654,,,,,,,,,,
acc,1778673186.0,185.0,0.010556623540058206,0.15363563594036955,-9.805411192012683,,,,,,,,,,
acc,1778673186.0,185.0,0.010446892878360328,0.15374401262189322,-9.80532246269555,,,,,,,,,,
acc,1778673186.0,185.0,0.01033856725213641,0.15385100160484902,-9.80523486950424,,,,,,,,,,
acc,1778673186.0,185.0,0.010231621180021263,0.1539566280561844,-9.805148391834262,,,,,,,,,,
acc,1778673186.0,185.0,0.01012602983992049,0.15406091649171091,-9.805063009614221,,,,,,,,,,
acc,1778673186.0,185.0,0.010021769047116179,0.15416389079772821,-9.804978703288112,,,,,,,,,,
acc,1778673186.0,185.0,0.010320099862613813,0.1542655742517954,-9.805336875109042,,,,,,,,,,
acc,1778673186.0,185.0,0.010214316809041,0.15436598954268793,-9.805690579926784,,,,,,,,,,
acc,1778673186.0,185.0,0.010109846407539282,0.15446515878957712,-9.805600415582791,,,,,,,,,,
acc,1778673186.0,185.0,0.010405330305647751,0.15456310356046704,-9.805511364528238,,,,,,,,,,
acc,1778673186.0,185.0,0.010697183611095272,0.1543017992790485,-9.805463188221003,,,,,,,,,,
acc,1778673186.0,185.0,0.010985468223969787,0.15440099666667967,-9.805375902532894,,,,,,,,,,
acc,1778673186.0,185.0,0.011270244535969795,0.15449898686438035,-9.805725507596534,,,,,,,,,,
acc,1778673186.0,185.0,0.011551571478013565,0.1542399173449453,-9.80603133887482,,,,,,,,,,
acc,1778673186.0,185.0,0.011829506566059517,0.15398397133006628,-9.805978295230071,,,,,,,,,,
acc,1778673186.0,185.0,0.011710223505672974,0.15408559332889607,-9.80588650197491,,,,,,,,,,
acc,1778673186.0,185.0,0.011985506233615965,0.15418600115593648,-9.80579580545847,,,,,,,,,,
acc,1778673186.0,185.0,0.012257514443568669,0.15428521462095326,-9.805706187786956,,,,,,,,,,
acc,1778673186.0,185.0,0.012134600041637678,0.15438325307183215,-9.805617631483786,,,,,,,,,,
acc,1778673186.0,185.0,0.012013135102339116,0.15412823082245883,-9.805569217762066,,,,,,,,,,
acc,1778673186.0,185.0,0.012283414975171197,0.15387620319153872,-9.805521372542213,,,,,,,,,,
acc,1778673186.0,185.0,0.012550534292812809,0.15397780762995805,-9.805435124029403,,,,,,,,,,
acc,1778673186.0,185.0,0.012425552582597732,0.15407822882152974,-9.805777777183847,,,,,,,,,,
acc,1778673186.0,185.0,0.012302020473720646,0.15417748527712996,-9.805339754518545,,,,,,,,,,
acc,1778673186.0,185.0,0.012179915442273714,0.154275595094428,-9.805682230129651,,,,,,,,,,
acc,1778673186.0,185.0,0.012446310315875753,0.15437257597000853,-9.806020764901652,,,,,,,,,,
acc,1778673186.0,185.0,0.012709651662316284,0.154468445211068,-9.805930274740698,,,,,,,,,,
acc,1778673186.0,185.0,0.012584093268073757,0.1542159143267535,-9.805879405158656,,,,,,,,,,
acc,1778673186.0,185.0,0.012459963210776052,0.1543130365550096,-9.805790585304537,,,,,,,,,,
acc,1778673186.0,185.0,0.01233724002157731,0.1540627924329866,-9.805741243883961,,,,,,,,,,
acc,1778673186.0,185.0,0.012215902690713626,0.15381537420641633,-9.80569245965408,,,,,,,,,,
acc,1778673186.0,185.0,0.012095930654505475,0.15357073994402273,-9.805644224347171,,,,,,,,,,
acc,1778673186.0,185.0,0.011977303782802115,0.15332884859853568,-9.805596529869815,,,,,,,,,,
acc,1778673186.0,185.0,0.01186000236685073,0.1534339652324496,-9.80551111433544,,,,,,,,,,
acc,1778673186.0,185.0,0.01174400710757382,0.1539199621389688,-9.805426649906977,,,,,,,,,,
acc,1778673186.0,185.0,0.012010831913715317,0.15401902312404211,-9.805343122821455,,,,,,,,,,
acc,1778673186.0,185.0,0.012274705469821281,0.15411698843236804,-9.80526051959799,,,,,,,,,,
acc,1778673186.0,185.0,0.012535669963688916,0.1542138737265261,-9.80559743531186,,,,,,,,,,
acc,1778673186.0,185.0,0.012413699985846335,0.1543096943525354,-9.805512567471146,,,,,,,,,,
acc,1778673186.0,185.0,0.012293066081142064,0.15440446534840804,-9.8054286292825,,,,,,,,,,
acc,1778673186.0,185.0,0.01217374948923511,0.15415697705182296,-9.805383519357704,,,,,,,,,,
acc,1778673186.0,185.0,0.012434415985426809,0.15391218300280587,-9.805338900515949,,,,,,,,,,
acc,1778673186.0,185.0,0.012314012379625087,0.15401046462424448,-9.804916524964657,,,,,,,,,,
acc,1778673186.0,185.0,0.012194911673696988,0.15410768273009068,-9.804838747610656,,,,,,,,,,
acc,1778673186.0,185.0,0.012454476027798879,0.15420385191304453,-9.805176935196013,,,,,,,,,,
acc,1778673186.0,185.0,0.012711247926201184,0.1542989864848169,-9.80509681862211,,,,,,,,,,
acc,1778673186.0,185.0,0.012588713386254101,0.15439310048342078,-9.805017561513111,,,,,,,,,,
acc,1778673186.0,185.0,0.012467489682062101,0.15448620768023247,-9.804939152271599,,,,,,,,,,
acc,1778673186.0,185.0,0.012347559221819867,0.15457832158683119,-9.804861579518938,,,,,,,,,,
acc,1778673186.0,185.0,0.012228904743345967,0.15466945546162486,-9.804784832089704,,,,,,,,,,
acc,1778673186.0,185.0,0.01211150930572438,0.15475962231627002,-9.804708899026263,,,,,,,,,,
acc,1778673186.0,185.0,0.011995356281204702,0.15451167828625512,-9.804671229290776,,,,,,,,,,
acc,1778673186.0,185.0,0.011880429347351869,0.15460317946105462,-9.805008217921872,,,,,,,,,,
acc,1778673186.0,185.0,0.011766712479436548,0.15469371721978484,-9.804930368541086,,,,,,,,,,
acc,1778673186.0,185.0,0.011654189943057761,0.15478330408967614,-9.804853336787206,,,,,,,,,,
acc,1778673186.0,185.0,0.011916043044086054,0.15487195237250387,-9.80477711208248,,,,,,,,,,
acc,1778673186.0,185.0,0.012175159394246035,0.1546240995221469,-9.805074552160132,,,,,,,,,,
acc,1778673186.0,185.0,0.012431574047584104,0.15471410697280846,-9.804996354600386,,,,,,,,,,
acc,1778673186.0,185.0,0.01268532143967482,0.15480317815332323,-9.805328399576176,,,,,,,,,,
acc,1778673186.0,185.0,0.012564553340336567,0.15455662917948176,-9.805619812236255,,,,,,,,,,
acc,1778673186.0,185.0,0.01244503574720124,0.15464704696128065,-9.805945362412034,,,,,,,,,,
acc,1778673186.0,185.0,0.012326752949383157,0.15473653059229361,-9.805859153913714,,,,,,,,,,
acc,1778673186.0,185.0,0.012580649501970452,0.15482509175387152,-9.806181897715003,,,,,,,,,,
acc,1778673186.0,185.0,0.01283193433855075,0.15491274192788015,-9.806093583402198,,,,,,,,,,
acc,1778673186.0,185.0,0.013080639818031465,0.1549994924013669,-9.806413594554705,,,,,,,,,,
acc,1778673186.0,185.0,0.013326797753785131,0.15508535427109224,-9.806323222044215,,,,,,,,,,
acc,1778673186.0,185.0,0.013570439426265216,0.15517033844793018,-9.806233773335059,,,,,,,,,,
acc,1778673186.0,185.0,0.013442059872014822,0.1552544556611422,-9.805812653091358,,,,,,,,,,
acc,1778673186.0,185.0,0.013684254139164409,0.15533771646252897,-9.806134363332815,,,,,,,,,,
acc,1778673186.0,185.0,0.013554984540762016,0.15542013123046358,-9.806046893883087,,,,,,,,,,
acc,1778673186.0,185.0,0.01379576988761117,0.15550171017381048,-9.80673468133378,,,,,,,,,,
acc,1778673186.0,185.0,0.013665628027673076,0.15558246333573367,-9.806310027650593,,,,,,,,,,
acc,1778673186.0,185.0,0.013905041631511645,0.15566240059739786,-9.806626155055717,,,,,,,,,,
acc,1778673186.0,185.0,0.013774044786666436,0.155741531681566,-9.806203092990952,,,,,,,,,,
acc,1778673186.0,185.0,0.014012122573610078,0.15548888397081576,-9.806483037367473,,,,,,,,,,
acc,1778673186.0,185.0,0.013880287537845922,0.1552387751496435,-9.806429388942952,,,,,,,,,,
acc,1778673186.0,185.0,0.0141170642364429,0.15499117532599369,-9.806376278699226,,,,,,,,,,
acc,1778673186.0,185.0,0.014351469749483328,0.15507641312061315,-9.806286995963477,,,,,,,,,,
acc,1778673186.0,185.0,0.014583531777694017,0.1548306410110586,-9.80623528794355,,,,,,,,,,
acc,1778673186.0,185.0,0.014446656162047029,0.15458732195413144,-9.806514066572836,,,,,,,,,,
acc,1778673186.0,185.0,0.014677551580420688,0.15434642750975464,-9.806460289594801,,,,,,,,,,
acc,1778673186.0,185.0,0.014539953094267822,0.15410792967220702,-9.806004223679073,,,,,,,,,,
acc,1778673186.0,185.0,0.014769711761967496,0.15420119406997504,-9.80591868766009,,,,,,,,,,
acc,1778673186.0,185.0,0.014631403927506738,0.15396432258795387,-9.805870576873241,,,,,,,,,,
acc,1778673186.0,185.0,0.014494465704256335,0.15372979675640472,-9.805822942509678,,,,,,,,,,
acc,1778673186.0,185.0,0.014358881499227679,0.15349758987015696,-9.805775779145335,,,,,,,,,,
acc,1778673186.0,185.0,0.014224635950726693,0.15326767562016416,-9.805729081436601,,,,,,,,,,
acc,1778673186.0,185.0,0.014091713923620295,0.15304002808539718,-9.805682844118675,,,,,,,,,,
acc,1778673186.0,185.0,0.013960100504726812,0.1528146217249497,-9.805637062003962,,,,,,,,,,
acc,1778673186.0,185.0,0.01350159478179798,0.15259143137034947,-9.805919925532184,,,,,,,,,,
acc,1778673186.0,185.0,0.013375616877720488,0.15237043221806928,-9.805871976302614,,,,,,,,,,
acc,1778673186.0,185.0,0.01292300460496062,0.15215159982223136,-9.80615237601303,,,,,,,,,,
acc,1778673186.0,185.0,0.012474824010194556,0.15226262562818207,-9.806065894607402,,,,,,,,,,
acc,1778673186.0,185.0,0.012358590403230714,0.15237256576377295,-9.806380620572511,,,,,,,,,,
acc,1778673186.0,185.0,0.012243491931425278,0.15215401609347834,-9.806328469983361,,,,,,,,,,
acc,1778673186.0,185.0,0.012129516089805847,0.15226486865868916,-9.806240466723866,,,,,,,,,,
acc,1778673186.0,185.0,0.012016650548845195,0.1523746413487753,-9.806153320751982,,,,,,,,,,
acc,1778673186.0,185.0,0.011904883151075478,0.15248334598805385,-9.80606702268066,,,,,,,,,,
acc,1778673186.0,185.0,0.011794201907787249,0.15259099423670808,-9.805981563253154,,,,,,,,,,
acc,1778673186.0,185.0,0.012047609401456839,0.15269759759391774,-9.805896933340533,,,,,,,,,,
acc,1778673186.0,185.0,0.01193569293160595,0.15280316740091196,-9.80581312393926,,,,,,,,,,
acc,1778673186.0,185.0,0.01218758281610439,0.15290771484394655,-9.805730126168829,,,,,,,,,,
acc,1778673186.0,185.0,0.01243703606769877,0.15301125095720805,-9.806046777380033,,,,,,,,,,
acc,1778673186.0,185.0,0.01232163757284021,0.15311378662564676,-9.805961675970092,,,,,,,,,,
acc,1778673186.0,185.0,0.012207352940350528,0.15321533258774067,-9.805877395985581,,,,,,,,,,
acc,1778673186.0,185.0,0.012456340686736726,0.1533158994381923,-9.805793928633225,,,,,,,,,,
acc,1778673186.0,185.0,0.012702930187655843,0.15377754562798032,-9.805711265236896,,,,,,,,,,
acc,1778673186.0,185.0,0.012947146981388848,0.15423474981505586,-9.80562939723548,,,,,,,,,,
acc,1778673186.0,185.0,0.013189016269332826,0.15432576736751866,-9.805946284395521,,,,,,,,,,
acc,1778673186.0,185.0,0.013790230172845114,0.15441591089180493,-9.806260128534747,,,,,,,,,,
acc,1778673186.0,185.0,0.014024131348957265,0.15450518962466459,-9.806173265105029,,,,,,,,,,
acc,1778673186.0,185.0,0.01425579074442842,0.1549550376543212,-9.806484798894088,,,,,,,,,,
acc,1778673187.0,186.0,0.01448523193489946,0.1550392710920319,-9.806395914547602,,,,,,,,,,
acc,1778673187.0,186.0,0.01471247819237078,0.15512269871648937,-9.805982814598927,,,,,,,,,,
acc,1778673187.0,186.0,0.01493755249050625,0.15520532896188405,-9.805898626704208,,,,,,,,,,
acc,1778673187.0,186.0,0.015160477509814274,0.15528717015478183,-9.806212303234807,,,,,,,,,,
acc,1778673187.0,186.0,0.015381275642709387,0.15536823051598234,-9.806126046841667,,,,,,,,,,
acc,1778673187.0,186.0,0.015239228349930614,0.15512384973164442,-9.806401362578603,,,,,,,,,,
acc,1778673187.0,186.0,0.015459169254596344,0.15488179655357304,-9.806349473249844,,,,,,,,,,
acc,1778673187.0,186.0,0.015677017075521146,0.15464204689231328,-9.806298077729686,,,,,,,,,,
acc,1778673187.0,186.0,0.015532363150412136,0.15440457695898166,-9.806247170918468,,,,,,,,,,
acc,1778673187.0,186.0,0.01574941420085742,0.1541693632602244,-9.80619674777988,,,,,,,,,,
acc,1778673187.0,186.0,0.015964404648943657,0.15393638259328865,-9.806146803339914,,,,,,,,,,
acc,1778673187.0,186.0,0.015817218945296797,0.15370561204120375,-9.80609733268582,,,,,,,,,,
acc,1778673187.0,186.0,0.015671428418051917,0.15347702896806936,-9.806048330965103,,,,,,,,,,
acc,1778673187.0,186.0,0.015527018806335797,0.15325061101444765,-9.805603841181565,,,,,,,,,,
acc,1778673187.0,186.0,0.015383976022729104,0.15302633609285693,-9.80555941071902,,,,,,,,,,
acc,1778673187.0,186.0,0.015242286150455045,0.15280418238336368,-9.805515400483731,,,,,,,,,,
acc,1778673187.0,186.0,0.015101935440629223,0.15258412832927076,-9.80547180620516,,,,,,,,,,
acc,1778673187.0,186.0,0.014962910309569075,0.15236615263289877,-9.805033060401351,,,,,,,,,,
acc,1778673187.0,186.0,0.014825197336161309,0.1521502342514586,-9.804993926043872,,,,,,,,,,
acc,1778673187.0,186.0,0.01468878325928582,0.15193635239301237,-9.804955160798176,,,,,,,,,,
acc,1778673187.0,186.0,0.014230240171757868,0.15172448651252063,-9.804916760940557,,,,,,,,,,
acc,1778673187.0,186.0,0.014099359299621046,0.15151461630797353,-9.804878722791354,,,,,,,,,,
acc,1778673187.0,186.0,0.013969710474578359,0.1513067217166038,-9.80484104271427,,,,,,,,,,
acc,1778673187.0,186.0,0.013841281331818688,0.15110078291117926,-9.80512692949581,,,,,,,,,,
acc,1778673187.0,186.0,0.013714059651153462,0.15121991551039288,-9.805051082158123,,,,,,,,,,
acc,1778673187.0,186.0,0.01358803335480013,0.15101486024590893,-9.805011841943832,,,,,,,,,,
acc,1778673187.0,186.0,0.013463190505211525,0.15081173054772634,-9.805295982378121,,,,,,,,,,
acc,1778673187.0,186.0,0.013339519302949993,0.15093344588353902,-9.805218628275872,,,,,,,,,,
acc,1778673187.0,186.0,0.013217008084605101,0.1510540195806406,-9.805536630475144,,,,,,,,,,
acc,1778673187.0,186.0,0.013095645320753845,0.15117346298611564,-9.805851651632683,,,,,,,,,,
acc,1778673187.0,186.0,0.012975419613962253,0.1509690346123784,-9.805805100075924,,,,,,,,,,
acc,1778673187.0,186.0,0.012856319696827361,0.1507665204993665,-9.805758984426449,,,,,,,,,,
acc,1778673187.0,186.0,0.012738334430058524,0.15088853603201455,-9.80567745415206,,,,,,,,,,
acc,1778673187.0,186.0,0.01262145280059709,0.1510094102281415,-9.805596686514013,,,,,,,,,,
acc,1778673187.0,186.0,0.012505663919773466,0.1511291543483637,-9.805910870480187,,,,,,,,,,
acc,1778673187.0,186.0,0.012749249143300608,0.15124777952652754,-9.805827989900425,,,,,,,,,,
acc,1778673187.0,186.0,0.012990559334256477,0.15172353753628068,-9.806139945497064,,,,,,,,,,
acc,1778673187.0,186.0,0.012871444674507434,0.15183667290792835,-9.806054992201206,,,,,,,,,,
acc,1778673187.0,186.0,0.013111555271740691,0.151948752646329,-9.805970831579844,,,,,,,,,,
acc,1778673187.0,186.0,0.012991369967200942,0.1520597870958656,-9.805887455865383,,,,,,,,,,
acc,1778673187.0,186.0,0.013230305356400057,0.15216978648628662,-9.806198665072007,,,,,,,,,,
acc,1778673187.0,186.0,0.01346701441500443,0.15227876093432002,-9.805791075101952,,,,,,,,,,
acc,1778673187.0,186.0,0.013701518876024955,0.15238672044525614,-9.805709384906065,,,,,,,,,,
acc,1778673187.0,186.0,0.013576002508527262,0.15249367491450083,-9.80602208402587,,,,,,,,,,
acc,1778673187.0,186.0,0.013451654121655693,0.15227762535765765,-9.805974078705919,,,,,,,,,,
acc,1778673187.0,186.0,0.01332846235524044,0.15238554799045506,-9.806284263267225,,,,,,,,,,
acc,1778673187.0,186.0,0.0132064159728022,0.15285016021650294,-9.806198104300604,,,,,,,,,,
acc,1778673187.0,186.0,0.013085503859862395,0.15295281087062115,-9.806112746074536,,,,,,,,,,
acc,1778673187.0,186.0,0.012965715022284616,0.15305450789860658,-9.806028180827683,,,,,,,,,,
acc,1778673187.0,186.0,0.012525252332640263,0.15315526053335732,-9.805944400882511,,,,,,,,,,
acc,1778673187.0,186.0,0.012088878340352159,0.15325507790834364,-9.805861398644165,,,,,,,,,,
acc,1778673187.0,186.0,0.011656553545257365,0.1533539690589404,-9.80577916659936,,,,,,,,,,
acc,1778673187.0,186.0,0.011228238870320756,0.15345194292373496,-9.805376035077888,,,,,,,,,,
acc,1778673187.0,186.0,0.010803895656019248,0.1535490083458119,-9.805298263907385,,,,,,,,,,
acc,1778673187.0,186.0,0.010026163784483292,0.15364517407401448,-9.80557853546378,,,,,,,,,,
acc,1778673187.0,186.0,0.009255638104697105,0.15374044876418386,-9.805534656098978,,,,,,,,,,
acc,1778673187.0,186.0,0.008135021196328036,0.15383484098037614,-9.805455462176283,,,,,,,,,,
acc,1778673187.0,186.0,0.007024780352736518,0.15392835919605816,-9.805055531374864,,,,,,,,,,
acc,1778673187.0,186.0,0.005924816039117841,0.15402101179528227,-9.80498073619418,,,,,,,,,,
acc,1778673187.0,186.0,0.004835029768485595,0.1541128070738406,-9.80490663309828,,,,,,,,,,
acc,1778673187.0,186.0,0.0037553240882055366,0.15420375324039928,-9.804833215460597,,,,,,,,,,
acc,1778673187.0,186.0,0.002685602566761646,0.15429385841761334,-9.804760476723997,,,,,,,,,,
acc,1778673187.0,186.0,0.0009117759706816361,0.15474013211781626,-9.804724107805619,,,,,,,,,,
acc,1778673187.0,186.0,-0.0004887025403158415,0.15518228163744946,-9.804652381263878,,,,,,,,,,
acc,1778673187.0,186.0,-0.0022331619494413146,0.15562034632440777,-9.804224388908496,,,,,,,,,,
acc,1778673187.0,186.0,-0.003961509818391287,0.15605436511796983,-9.803800349420113,,,,,,,,,,
acc,1778673187.0,186.0,-0.00599506548775262,0.15612751846682024,-9.80373708323609,,,,,,,,,,
acc,1778673187.0,186.0,-0.00800985042268396,0.1561999965737264,-9.80335326595502,,,,,,,,,,
acc,1778673187.0,186.0,-0.010006043116310336,0.1562718058596435,-9.803294095330562,,,,,,,,,,
acc,1778673187.0,186.0,-0.012340577471447758,0.15634295267940823,-9.803271143561028,,,,,,,,,,
acc,1778673187.0,186.0,-0.014653580760715528,0.1564134433225528,-9.80285600887752,,,,,,,,,,
acc,1778673187.0,186.0,-0.017301950285587824,0.1564832840141057,-9.802444701899878,,,,,,,,,,
acc,1778673187.0,186.0,-0.019925907186267793,0.15623149167845568,-9.802393848151933,,,,,,,,,,
acc,1778673187.0,186.0,-0.022525682713909943,0.15630298140414983,-9.802700094198267,,,,,,,,,,
acc,1778673187.0,186.0,-0.025458097672722717,0.1560528779288756,-9.802682575037258,,,,,,,,,,
acc,1778673187.0,186.0,-0.028363502146362126,0.15580507815764924,-9.802665217245307,,,,,,,,,,
acc,1778673187.0,186.0,-0.031242151443889633,0.15588044213937635,-9.80261236778942,,,,,,,,,,
acc,1778673187.0,186.0,-0.03445080312381141,0.15563425609856277,-9.802595653553663,,,,,,,,,,
acc,1778673187.0,186.0,-0.03727344423654415,0.15539033605189786,-9.802579093162374,,,,,,,,,,
acc,1778673187.0,186.0,-0.040426560025153865,0.15514866062447247,-9.80256268516435,,,,,,,,,,
acc,1778673187.0,186.0,-0.04355066654880998,0.15490920865694421,-9.80254642812303,,,,,,,,,,
acc,1778673187.0,186.0,-0.046966804392865116,0.15467195920299506,-9.80253032061631,,,,,,,,,,
acc,1778673187.0,186.0,-0.0503515269753675,0.1544368915268281,-9.802514361236382,,,,,,,,,,
acc,1778673187.0,186.0,-0.05441782784290284,0.15420398510070263,-9.80249854858956,,,,,,,,,,
acc,1778673187.0,186.0,-0.05844675036393612,0.15397321960250696,-9.802482881296122,,,,,,,,,,
acc,1778673187.0,186.0,-0.06208234191732216,0.15374457491336793,-9.802788034214453,,,,,,,,,,
acc,1778673187.0,186.0,-0.06604080772191061,0.15316176052122568,-9.802769728769983,,,,,,,,,,
acc,1778673187.0,186.0,-0.07031915548046773,0.15294054709568272,-9.80307222462006,,,,,,,,,,
acc,1778673187.0,186.0,-0.07455820739104747,0.15272136547532045,-9.803371942100632,,,,,,,,,,
acc,1778673187.0,186.0,-0.07911454170707483,0.1525041966108247,-9.803312697427685,,,,,,,,,,
acc,1778673187.0,186.0,-0.08362904288593898,0.15228902164191824,-9.803253996698698,,,,,,,,,,
acc,1778673187.0,186.0,-0.08845825892270971,0.15171966567923517,-9.803552000153172,,,,,,,,,,
acc,1778673187.0,186.0,-0.09324315272522585,0.15151166979990804,-9.803847268551102,,,,,,,,,,
acc,1778673187.0,186.0,-0.09830465187103386,0.15130558255154059,-9.804175436988498,,,,,,,,,,
acc,1778673187.0,186.0,-0.10331971338988388,0.15074529363506212,-9.804500594586015,,,,,,,,,,
acc,1778673187.0,186.0,-0.10864484324320296,0.15054621626600825,-9.804466688402211,,,,,,,,,,
acc,1778673187.0,186.0,-0.11392113346550557,0.149992912893968,-9.804433093190262,,,,,,,,,,
acc,1778673187.0,186.0,-0.11914904005173058,0.1494446833195896,-9.804720245872167,,,,,,,,,,
acc,1778673187.0,186.0,-0.12432901452218913,0.14890148019375085,-9.805004765791729,,,,,,,,,,
acc,1778673187.0,186.0,-0.12981749763681583,0.14836325663135558,-9.805286677506508,,,,,,,,,,
acc,1778673187.0,186.0,-0.13525567555799345,0.14818594117557796,-9.805245616925575,,,,,,,,,,
acc,1778673187.0,186.0,-0.14099998281066173,0.14801025066902623,-9.805169338792027,,,,,,,,,,
acc,1778673187.0,186.0,-0.1466916562562914,0.14783616997542734,-9.805485299317146,,,,,,,,,,
acc,1778673187.0,186.0,-0.1523311859587569,0.1476636841061035,-9.805798365198953,,,,,,,,,,
acc,1778673187.0,186.0,-0.15791905720901767,0.1474927782183573,-9.806108563377292,,,,,,,,,,
acc,1778673187.0,186.0,-0.16381164614742544,0.14764373724951796,-9.806380333706157,,,,,,,,,,
acc,1778673187.0,186.0,-0.16965027400923738,0.14747302932104675,-9.806685200461198,,,,,,,,,,
acc,1778673187.0,186.0,-0.17543544237003864,0.14730388442431702,-9.806987275802745,,,,,,,,,,
acc,1778673187.0,186.0,-0.18148790316742708,0.14713628803659096,-9.80725100377742,,,,,,,,,,
acc,1778673187.0,186.0,-0.1874849615599955,0.14697022577576468,-9.807868138924098,,,,,,,,,,
acc,1778673187.0,186.0,-0.1937829375996488,0.14680568339885447,-9.807803584002203,,,,,,,,,,
acc,1778673187.0,186.0,-0.2000232788982521,0.14664264680050315,-9.808415632541921,,,,,,,,,,
acc,1778673187.0,186.0,-0.20656230464144867,0.14648110201150644,-9.808666305349115,,,,,,,,,,
acc,1778673187.0,186.0,-0.21304150477439082,0.14632103519735867,-9.808914684748354,,,,,,,,,,
acc,1778673187.0,186.0,-0.2194614338972941,0.14648260605021415,-9.809552110988893,,,,,,,,,,
acc,1778673187.0,186.0,-0.2261783732577315,0.14632253844109977,-9.809792403463804,,,,,,,,,,
acc,1778673187.0,186.0,-0.23283388143246495,0.1461639347640671,-9.810030498293203,,,,,,,,,,
acc,1778673187.0,186.0,-0.23942852730843067,0.1463269171884233,-9.810301984441157,,,,,,,,,,
acc,1778673187.0,186.0,-0.2459628743141041,0.14616828574218638,-9.8108911118485,,,,,,,,,,
acc,1778673187.0,186.0,-0.2524374804769561,0.1460111045979135,-9.81147485310665,,,,,,,,,,
acc,1778673187.0,186.0,-0.2588528984801727,0.14617546040892793,-9.812088822695882,,,,,,,,,,
acc,1778673187.0,186.0,-0.2655653368153341,0.14633831390934587,-9.812341528243296,,,,,,,,,,
acc,1778673187.0,186.0,-0.27253650330061474,0.14617960162434296,-9.812200713429421,,,,,,,,,,
acc,1778673187.0,186.0,-0.2794439625140958,0.14634240607945867,-9.812772449021985,,,,,,,,,,
acc,1778673187.0,186.0,-0.28628830309944236,0.14650372286833654,-9.813338960238243,,,,,,,,,,
acc,1778673187.0,186.0,-0.2934257114260359,0.1466635657326474,-9.813935853849234,,,,,,,,,,
acc,1778673187.0,186.0,-0.30049791286321514,0.14650191391340145,-9.814491736928288,,,,,,,,,,
acc,1778673187.0,186.0,-0.3075055093818538,0.14634173879171664,-9.814366928466125,,,,,,,,,,
acc,1778673188.0,187.0,-0.31444909722714987,0.1465030407626026,-9.814207704936459,,,,,,,,,,
acc,1778673188.0,187.0,-0.3216848341974904,0.14634286538277108,-9.814049935648193,,,,,,,,,,
acc,1778673188.0,187.0,-0.3288544908266843,0.14618415280400404,-9.814284716520802,,,,,,,,,,
acc,1778673188.0,187.0,-0.33595867647820804,0.14634687440329225,-9.814837338316964,,,,,,,,,,
acc,1778673188.0,187.0,-0.34299799473749815,0.14650811021288918,-9.815029387887876,,,,,,,,,,
acc,1778673188.0,187.0,-0.3499730434709907,0.14666787392694466,-9.814899708631831,,,,,,,,,,
acc,1778673188.0,187.0,-0.3572399300358134,0.14718169426131758,-9.815091179623312,,,,,,,,,,
acc,1778673188.0,187.0,-0.36479597674572295,0.14733531887034465,-9.814925397467709,,,,,,,,,,
acc,1778673188.0,187.0,-0.37228305345610013,0.14748754122636568,-9.815152170989414,,,,,,,,,,
acc,1778673188.0,187.0,-0.38002172635610926,0.14763837424082732,-9.815376874737096,,,,,,,,,,
acc,1778673188.0,187.0,-0.3876897735656134,0.14778783070327095,-9.815208506023188,,,,,,,,,,
acc,1778673188.0,187.0,-0.3952878450764355,0.14793592328256464,-9.815041673778484,,,,,,,,,,
acc,1778673188.0,187.0,-0.40281658475156634,0.14808266452812052,-9.814876363865567,,,,,,,,,,
acc,1778673188.0,187.0,-0.4109875209032743,0.1482280668710979,-9.815068012088128,,,,,,,,,,
acc,1778673188.0,187.0,-0.41872847690738524,0.14872758376279993,-9.814902470657469,,,,,,,,,,
acc,1778673188.0,187.0,-0.42675423638392274,0.14886711098279062,-9.815093872070134,,,,,,,,,,
acc,1778673188.0,187.0,-0.4354176221964964,0.14900536539869946,-9.814928103204451,,,,,,,,,,
acc,1778673188.0,187.0,-0.4436465768687491,0.1491423587092569,-9.815154801353003,,,,,,,,,,
acc,1778673188.0,187.0,-0.4524757349404653,0.14927810250329537,-9.815024023789897,,,,,,,,,,
acc,1778673188.0,187.0,-0.4615797677213088,0.14941260826084532,-9.815214301774045,,,,,,,,,,
acc,1778673188.0,187.0,-0.4706007736408607,0.14954588735421864,-9.815082988651351,,,,,,,,,,
acc,1778673188.0,187.0,-0.4795395152164964,0.14967795104907966,-9.815272721944435,,,,,,,,,,
acc,1778673188.0,187.0,-0.4887521250122302,0.1494889773996971,-9.815496260122105,,,,,,,,,,
acc,1778673188.0,187.0,-0.49859145526412696,0.14962155330737337,-9.815326855975108,,,,,,,,,,
acc,1778673188.0,187.0,-0.5083410755265146,0.14975292045561356,-9.815549892516989,,,,,,,,,,
acc,1778673188.0,187.0,-0.518321631785042,0.14988308993741672,-9.815770895648052,,,,,,,,,,
acc,1778673188.0,187.0,-0.5278913848564722,0.14969226540429967,-9.816309691363694,,,,,,,,,,
acc,1778673188.0,187.0,-0.5373739012891678,0.14950318040309457,-9.816488242858634,,,,,,,,,,
acc,1778673188.0,187.0,-0.5470897854909254,0.14931581897814214,-9.81702049270934,,,,,,,,,,
acc,1778673188.0,187.0,-0.5574277586975925,0.14913016532278803,-9.81683724344268,,,,,,,,,,
acc,1778673188.0,187.0,-0.5680268209566542,0.14894620377792006,-9.817010986320488,,,,,,,,,,
acc,1778673188.0,187.0,-0.578884600571979,0.14840861233293384,-9.8171831457322,,,,,,,,,,
acc,1778673188.0,187.0,-0.5896434292870173,0.1478759201545889,-9.81703395504534,,,,,,,,,,
acc,1778673188.0,187.0,-0.6003042139829785,0.14734808234129418,-9.816886123916749,,,,,,,,,,
acc,1778673188.0,187.0,-0.610512555880537,0.14682505440980356,-9.817414698222453,,,,,,,,,,
acc,1778673188.0,187.0,-0.6213384532252512,0.14630679229113464,-9.817227882663706,,,,,,,,,,
acc,1778673188.0,187.0,-0.6327407463147297,0.14579325232653242,-9.817042769278086,,,,,,,,,,
acc,1778673188.0,187.0,-0.6436838815330964,0.1452843912634769,-9.817605418250864,,,,,,,,,,
acc,1778673188.0,187.0,-0.6545273177568285,0.1451354313745052,-9.817097136666687,,,,,,,,,,
acc,1778673188.0,187.0,-0.6652719679195537,0.14498782854250108,-9.817304013997736,,,,,,,,,,
acc,1778673188.0,187.0,-0.6766292449535448,0.1448415703427411,-9.817118219776496,,,,,,,,,,
acc,1778673188.0,187.0,-0.6878830641249075,0.14501637033803502,-9.81728937606973,,,,,,,,,,
acc,1778673188.0,187.0,-0.6993896252475575,0.14518957808242833,-9.817458973302498,,,,,,,,,,
acc,1778673188.0,187.0,-0.7104361300611997,0.14536120814818992,-9.817307300047885,,,,,,,,,,
acc,1778673188.0,187.0,-0.7213820210603231,0.14588651770251024,-9.817476729449501,,,,,,,,,,
acc,1778673188.0,187.0,-0.7325834566378968,0.1460518050209912,-9.817324898961285,,,,,,,,,,
acc,1778673188.0,187.0,-0.744038108700241,0.14554065979442268,-9.817884908124265,,,,,,,,,,
acc,1778673188.0,187.0,-0.7553884423224663,0.1453893887494344,-9.818084598097855,,,,,,,,,,
acc,1778673188.0,187.0,-0.7666354116366906,0.1452394952874676,-9.818282469550807,,,,,,,,,,
acc,1778673188.0,187.0,-0.7774247429347665,0.14473575690076843,-9.818833749023371,,,,,,,,,,
acc,1778673188.0,187.0,-0.7884710409042396,0.1442366055646812,-9.819024803116712,,,,,,,,,,
acc,1778673188.0,187.0,-0.7994167548635256,0.14409720034814286,-9.819214117533381,,,,,,,,,,
acc,1778673188.0,187.0,-0.8105824831997543,0.14360386778397205,-9.81975690485742,,,,,,,,,,
acc,1778673188.0,187.0,-0.8216465474542938,0.14347021944670854,-9.819939557668405,,,,,,,,,,
acc,1778673188.0,187.0,-0.8329650651119135,0.14333778793583318,-9.820085030475745,,,,,,,,,,
acc,1778673188.0,187.0,-0.8441805347938058,0.143206562130469,-9.820229178844782,,,,,,,,,,
acc,1778673188.0,187.0,-0.8556490874074819,0.1433961949488813,-9.820407531073183,,,,,,,,,,
acc,1778673188.0,187.0,-0.867013233158631,0.143584101397082,-9.820939435806341,,,,,,,,,,
acc,1778673188.0,187.0,-0.8782739259576945,0.14377029724800525,-9.821466498370446,,,,,,,,,,
acc,1778673188.0,187.0,-0.8894321109074967,0.14395479812895107,-9.822343940583243,,,,,,,,,,
acc,1778673188.0,187.0,-0.9004887243870511,0.1434628046825775,-9.82282270705945,,,,,,,,,,
acc,1778673188.0,187.0,-0.911444694134502,0.14297528964694922,-9.822941954449298,,,,,,,,,,
acc,1778673188.0,187.0,-0.9223009393292144,0.14284736958923147,-9.823415273881809,,,,,,,,,,
acc,1778673188.0,187.0,-0.9330583706730201,0.14272061386349819,-9.823884285147454,,,,,,,,,,
acc,1778673188.0,187.0,-0.9437178904706323,0.14326980860276312,-9.824384540812234,,,,,,,,,,
acc,1778673188.0,187.0,-0.9539252365819374,0.14345884872192236,-9.824880243402918,,,,,,,,,,
acc,1778673188.0,187.0,-0.9636845395590395,0.14364616834261312,-9.825335921938116,,,,,,,,,,
acc,1778673188.0,187.0,-0.9740653131933134,0.1441869326539683,-9.82546782518207,,,,,,,,,,
acc,1778673188.0,187.0,-0.9839964679688031,0.1443676293655078,-9.825598528010337,,,,,,,,,,
acc,1778673188.0,187.0,-0.9941923875138766,0.14525696780258224,-9.825728041379715,,,,,,,,,,
acc,1778673188.0,187.0,-1.004650652595226,0.14578307308487706,-9.825820864877564,,,,,,,,,,
acc,1778673188.0,187.0,-1.0150137474160423,0.14594925390664093,-9.825912843681152,,,,,,,,,,
acc,1778673188.0,187.0,-1.0256376743340823,0.14611392252084637,-9.826359110302715,,,,,,,,,,
acc,1778673188.0,187.0,-1.0361649283698748,0.1462770927258785,-9.826801316101863,,,,,,,,,,
acc,1778673188.0,187.0,-1.0465963915653569,0.14679390624153021,-9.82723949812948,,,,,,,,,,
acc,1778673188.0,187.0,-1.0569329378509205,0.1466312856964686,-9.827709202888782,,,,,,,,,,
acc,1778673188.0,187.0,-1.066820310710735,0.14678974862273694,-9.827784011026143,,,,,,,,,,
acc,1778673188.0,187.0,-1.0762626110550586,0.14730188941582945,-9.827893647748564,,,,,,,,,,
acc,1778673188.0,187.0,-1.0856190009993492,0.14780937051596543,-9.827611660999358,,,,,,,,,,
acc,1778673188.0,187.0,-1.0948902641128397,0.14795712009127573,-9.82733223983778,,,,,,,,,,
acc,1778673188.0,187.0,-1.1040771767662425,0.14845863716856703,-9.826735766666625,,,,,,,,,,
acc,1778673188.0,187.0,-1.1138907174817014,0.14895559151505447,-9.825860636410296,,,,,,,,,,
acc,1778673188.0,187.0,-1.1232598712238846,0.14909291805467104,-9.825952245840268,,,,,,,,,,
acc,1778673188.0,187.0,-1.132543789343639,0.14958409949560872,-9.82572342532555,,,,,,,,,,
acc,1778673188.0,187.0,-1.1417432490057506,0.15007081251853696,-9.825816280814923,,,,,,,,,,
acc,1778673188.0,187.0,-1.150859020242058,0.15090819730627544,-9.826263381940956,,,,,,,,,,
acc,1778673188.0,187.0,-1.1595367779922616,0.15138286735359804,-9.826386834781502,,,,,,,,,,
acc,1778673188.0,187.0,-1.168135596392991,0.15149812461682327,-9.826118563015244,,,,,,,,,,
acc,1778673188.0,187.0,-1.1766561950300383,0.15267760210934603,-9.825852731602204,,,,,,,,,,
acc,1778673188.0,187.0,-1.1854543681849694,0.15420143189785918,-9.825979914995541,,,,,,,,,,
acc,1778673188.0,187.0,-1.1945275993306956,0.15571140057568633,-9.826105941499108,,,,,,,,,,
acc,1778673188.0,187.0,-1.203163213646194,0.15752721469172304,-9.826230821656983,,,,,,,,,,
acc,1778673188.0,187.0,-1.2117202792188482,0.15865185906776974,-9.826674135166384,,,,,,,,,,
acc,1778673188.0,187.0,-1.2201995118783229,0.15941120108502904,-9.826438767033848,,,,,,,,,,
acc,1778673188.0,187.0,-1.2286016208941255,0.16016363643684864,-9.826525114401619,,,,,,,,,,
acc,1778673188.0,187.0,-1.2365722401442378,0.16019907209382572,-9.826646181473414,,,,,,,,,,
acc,1778673188.0,187.0,-1.2448254312615403,0.16023418545325527,-9.827085709481949,,,,,,,,,,
acc,1778673188.0,187.0,-1.25367819294088,0.16062405359253726,-9.827876304972015,,,,,,,,,,
acc,1778673188.0,187.0,-1.2624504387802888,0.1613654481543564,-9.82865970999856,,,,,,,,,,
acc,1778673188.0,187.0,-1.2697581430662448,0.16174502940327398,-9.82911643303962,,,,,,,,,,
acc,1778673188.0,187.0,-1.2766443263181564,0.1617660898335504,-9.82953349817811,,,,,,,,,,
acc,1778673188.0,187.0,-1.283822940416057,0.16146740491125264,-9.829946770285174,,,,,,,,,,
acc,1778673188.0,187.0,-1.2916463901831048,0.1608163803225681,-9.830746852827552,,,,,,,,,,
acc,1778673188.0,187.0,-1.2993986910633555,0.16052633068793243,-9.83043897437428,,,,,,,,,,
acc,1778673188.0,187.0,-1.3074355528615833,0.1612685915253745,-9.830169399271526,,,,,,,,,,
acc,1778673188.0,187.0,-1.315399327004855,0.16271420423184874,-9.830257335803303,,,,,,,,,,
acc,1778673188.0,187.0,-1.3232906791527694,0.16414667063924,-9.830344472646518,,,,,,,,,,
acc,1778673188.0,187.0,-1.3321399184442144,0.16556611047506037,-9.83110540974932,,,,,,,,,,
acc,1778673188.0,187.0,-1.3405536301913117,0.16555243916291312,-9.831149334614476,,,,,,,,,,
acc,1778673188.0,187.0,-1.3485357865591434,0.16521935009789418,-9.832293505976935,,,,,,,,,,
acc,1778673188.0,187.0,-1.35644535758278,0.16488928996181598,-9.832362134100697,,,,,,,,,,
acc,1778673188.0,187.0,-1.3653481476575378,0.16456223117356555,-9.832430138165847,,,,,,,,,,
acc,1778673188.0,187.0,-1.3738149332701493,0.16526778329051725,-9.832497523854787,,,,,,,,,,
acc,1778673188.0,187.0,-1.3829148162965148,0.16632195862759275,-9.832528794727192,,,,,,,,,,
acc,1778673188.0,187.0,-1.3919319540324482,0.16772158583282282,-9.83259528318463,,,,,,,,,,
acc,1778673188.0,187.0,-1.4008670998387134,0.16804336891683302,-9.832980701395682,,,,,,,,,,
acc,1778673188.0,187.0,-1.4097210001911864,0.16733261433714344,-9.832333003321835,,,,,,,,,,
acc,1778673188.0,187.0,-1.4174292762024625,0.16662832243075995,-9.832401270566185,,,,,,,,,,
acc,1778673188.0,187.0,-1.424712431842204,0.16557539311712383,-9.832113875837626,,,,,,,,,,
acc,1778673188.0,187.0,-1.4329944762637956,0.16453203755691084,-9.831438553000122,,,,,,,,,,
acc,1778673188.0,187.0,-1.4418757751710576,0.16420823695615194,-9.831514949056906,,,,,,,,,,
acc,1778673188.0,187.0,-1.4503567952442693,0.16491698282093797,-9.83123561300288,,,,,,,,,,
acc,1778673188.0,187.0,-1.4584056769146079,0.16526424833140843,-9.830958816730488,,,,,,,,,,
acc,1778673188.0,187.0,-1.465671307002599,0.165963391568664,-9.831359097460115,,,,,,,,,,
acc,1778673188.0,187.0,-1.4728708777882358,0.16594611029109446,-9.831400713972496,,,,,,,,,,
acc,1778673188.0,187.0,-1.4803600233228429,0.1656094629745212,-9.830731886506966,,,,,,,,,,
acc,1778673189.0,188.0,-1.4884911329325943,0.1652758764053051,-9.831524757997556,,,,,,,,,,
acc,1778673189.0,188.0,-1.4958382643237542,0.16561987446788307,-9.831209837901978,,,,,,,,,,
acc,1778673189.0,188.0,-1.5031185979302977,0.16734534460829742,-9.83160783087104,,,,,,,,,,
acc,1778673189.0,188.0,-1.5103327416550645,0.16941014681452538,-9.831682686214169,,,,,,,,,,
acc,1778673189.0,188.0,-1.5181913435581555,0.17042661283032795,-9.832076379303931,,,,,,,,,,
acc,1778673189.0,188.0,-1.5259784994528018,0.17107882042055814,-9.83179194940749,,,,,,,,,,
acc,1778673189.0,188.0,-1.5336948594922555,0.17243513111790235,-9.8318651307361,,,,,,,,,,
acc,1778673189.0,188.0,-1.5416605834803228,0.17377911120702758,-9.831547122656941,,,,,,,,,,
acc,1778673189.0,188.0,-1.549908912807805,0.17511087288988073,-9.831267505271233,,,,,,,,,,
acc,1778673189.0,188.0,-1.558082255442624,0.17710506366499573,-9.832055488230017,,,,,,,,,,
acc,1778673189.0,188.0,-1.5661812936904813,0.1794361466533437,-9.832836307584715,,,,,,,,,,
acc,1778673189.0,188.0,-1.5738516830189053,0.17929642008388394,-9.833219508566843,,,,,,,,,,
acc,1778673189.0,188.0,-1.5814523414215036,0.1798680031854368,-9.833599225897997,,,,,,,,,,
acc,1778673189.0,188.0,-1.5889839033374655,0.18007937127784834,-9.83433050101523,,,,,,,,,,
acc,1778673189.0,188.0,-1.5964469974195412,0.17961429010193433,-9.834735618461416,,,,,,,,,,
acc,1778673189.0,188.0,-1.6038422465871975,0.17879842882836933,-9.834782045076091,,,,,,,,,,
acc,1778673189.0,188.0,-1.6118802915368244,0.17866449973846646,-9.835147557926147,,,,,,,,,,
acc,1778673189.0,188.0,-1.6202002813378427,0.17924181904606432,-9.835154741684423,,,,,,,,,,
acc,1778673189.0,188.0,-1.6280896233685878,0.17945887557004536,-9.83551686569478,,,,,,,,,,
acc,1778673189.0,188.0,-1.6351972289584114,0.1796739589482777,-9.835875697827802,,,,,,,,,,
acc,1778673189.0,188.0,-1.6425952365781307,0.17988708713054855,-9.83662177968532,,,,,,,,,,
acc,1778673189.0,188.0,-1.6499259937178012,0.1808082934362781,-9.837006067086739,,,,,,,,,,
acc,1778673189.0,188.0,-1.65651559653013,0.1813661232350129,-9.8369963603012,,,,,,,,,,
acc,1778673189.0,188.0,-1.6626902965680124,0.18017934464003552,-9.836986741752623,,,,,,,,,,
acc,1778673189.0,188.0,-1.6694833712201729,0.1793583641762486,-9.836622200537017,,,,,,,,,,
acc,1778673189.0,188.0,-1.6772797150677654,0.18028436800650424,-9.83732598304416,,,,,,,,,,
acc,1778673189.0,188.0,-1.68500518960462,0.18155695400334804,-9.837348867049782,,,,,,,,,,
acc,1778673189.0,188.0,-1.6923054314378085,0.1828179721720044,-9.836981036955107,,,,,,,,,,
acc,1778673189.0,188.0,-1.6988293087426234,0.18335753123080556,-9.838746567184577,,,,,,,,,,
acc,1778673189.0,188.0,-1.7049743849178907,0.18318217238903875,-9.838721042772598,,,,,,,,,,
acc,1778673189.0,188.0,-1.711063603190038,0.18300840753519257,-9.838695750374036,,,,,,,,,,
acc,1778673189.0,188.0,-1.7181269717910963,0.18319122756490294,-9.838351180298266,,,,,,,,,,
acc,1778673189.0,188.0,-1.7251261360266417,0.18408238625247791,-9.838329249301843,,,,,,,,,,
acc,1778673189.0,188.0,-1.7324166839871582,0.18634994531395574,-9.838307517651996,,,,,,,,,,
acc,1778673189.0,188.0,-1.739995957726718,0.187212394602639,-9.839031479181985,,,,,,,,,,
acc,1778673189.0,188.0,-1.747151344832326,0.18806700455017855,-9.839713353515016,,,,,,,,,,
acc,1778673189.0,188.0,-1.7535316967971983,0.18891384645171722,-9.839324040930952,,,,,,,,,,
acc,1778673189.0,188.0,-1.7594990525104581,0.1907824807529237,-9.83897376447243,,,,,,,,,,
acc,1778673189.0,188.0,-1.7654121679856867,0.19405411694067606,-9.838626671849328,,,,,,,,,,
acc,1778673189.0,188.0,-1.7723365295043407,0.19623103182826368,-9.838282734107406,,,,,,,,,,
acc,1778673189.0,188.0,-1.7791979526721677,0.19629368343739378,-9.83730293499028,,,,,,,,,,
acc,1778673189.0,188.0,-1.7856420102130526,0.19532628210427125,-9.836296535302827,,,,,,,,,,
acc,1778673189.0,188.0,-1.7920274956068987,0.19539715576761435,-9.835973775058623,,,,,,,,,,
acc,1778673189.0,188.0,-1.7987099400868252,0.19653236286049816,-9.836008947073859,,,,,,,,,,
acc,1778673189.0,188.0,-1.8053316461674445,0.19833174179655447,-9.835298306124702,,,,,,,,,,
acc,1778673189.0,188.0,-1.8108281824433996,0.20011476579880766,-9.834984618978904,,,,,,,,,,
acc,1778673189.0,188.0,-1.816274759750593,0.20152659555506075,-9.83399929482271,,,,,,,,,,
acc,1778673189.0,188.0,-1.8209973541986488,0.20363557720109823,-9.834371900940749,,,,,,,,,,
acc,1778673189.0,188.0,-1.8256770245136946,0.20572539010214058,-9.834066634026454,,,,,,,,,,
acc,1778673189.0,188.0,-1.8309886374235897,0.2095356630531423,-9.833373649136455,,,,,,,,,,
acc,1778673189.0,188.0,-1.8362519729265174,0.2146957704276604,-9.834106925714547,,,,,,,,,,
acc,1778673189.0,188.0,-1.841147981012538,0.22051895818081707,-9.834159062818872,,,,,,,,,,
acc,1778673189.0,188.0,-1.8456445041604317,0.22664420451096962,-9.835595188744625,,,,,,,,,,
acc,1778673189.0,188.0,-1.8493901707902047,0.23132932696832467,-9.836663267854371,,,,,,,,,,
acc,1778673189.0,188.0,-1.8531017934441776,0.23526187972988033,-9.835946689720855,,,,,,,,,,
acc,1778673189.0,188.0,-1.8574896679448916,0.2398686763343557,-9.83630159480464,,,,,,,,,,
acc,1778673189.0,188.0,-1.862192645436055,0.24546306602365,-9.837043763500809,,,,,,,,,,
acc,1778673189.0,188.0,-1.8671723652396663,0.250651617067025,-9.83667872232529,,,,,,,,,,
acc,1778673189.0,188.0,-1.8728168003223113,0.253379096164161,-9.837381956611328,,,,,,,,,,
acc,1778673189.0,188.0,-1.8784099345855165,0.25711124601456614,-9.837368834413153,,,,,,,,,,
acc,1778673189.0,188.0,-1.8835972523420947,0.2615194578172726,-9.838101301179126,,,,,,,,,,
acc,1778673189.0,188.0,-1.8880629479853455,0.2651776231112524,-9.837123176614826,,,,,,,,,,
acc,1778673189.0,188.0,-1.8917780846025642,0.2688025405942692,-9.836757415688794,,,,,,,,,,
acc,1778673189.0,188.0,-1.8961694268570584,0.2720395315182949,-9.837459931193028,,,,,,,,,,
acc,1778673189.0,188.0,-1.9011953321377706,0.2766315473516627,-9.83748159670836,,,,,,,,,,
acc,1778673189.0,188.0,-1.9068855288527522,0.28118182829841837,-9.83817752976964,,,,,,,,,,
acc,1778673189.0,188.0,-1.9118140408418076,0.28466129179642274,-9.838192673991685,,,,,,,,,,
acc,1778673189.0,188.0,-1.9160232876498364,0.2891385931391619,-9.837462206910944,,,,,,,,,,
acc,1778673189.0,188.0,-1.9205137619484265,0.29566960066392156,-9.837803334893122,,,,,,,,,,
acc,1778673189.0,188.0,-1.9253184127989986,0.30111180120329695,-9.837431395398477,,,,,,,,,,
acc,1778673189.0,188.0,-1.929404926351182,0.3047651248700831,-9.838127781492837,,,,,,,,,,
acc,1778673189.0,188.0,-1.9334542999228477,0.3083852455710458,-9.838462860123597,,,,,,,,,,
acc,1778673189.0,188.0,-1.9381413404634271,0.3126469344643326,-9.837445954802535,,,,,,,,,,
acc,1778673189.0,188.0,-1.9424307964940442,0.31793483403186396,-9.838142206816057,,,,,,,,,,
acc,1778673189.0,188.0,-1.9466812684110089,0.32281969775041175,-9.83815767193122,,,,,,,,,,
acc,1778673189.0,188.0,-1.9512480969350299,0.3262757349650867,-9.837782514262706,,,,,,,,,,
acc,1778673189.0,188.0,-1.9557734206846578,0.3286354226649348,-9.838156225026786,,,,,,,,,,
acc,1778673189.0,188.0,-1.960612593647905,0.3306541749109159,-9.83849104354701,,,,,,,,,,
acc,1778673189.0,188.0,-1.9657627723899973,0.3319446182721186,-9.838503338555697,,,,,,,,,,
acc,1778673189.0,188.0,-1.970511159774346,0.3332233337590157,-9.838515521824245,,,,,,,,,,
acc,1778673189.0,188.0,-1.9755713776898465,0.33520038884779413,-9.838172609392409,,,,,,,,,,
acc,1778673189.0,188.0,-1.981260062792989,0.33783394064889644,-9.838862253662546,,,,,,,,,,
acc,1778673189.0,188.0,-1.986222592986807,0.340443558224279,-9.838516190798867,,,,,,,,,,
acc,1778673189.0,188.0,-1.9914949979818328,0.3433844342787747,-9.838528257238169,,,,,,,,,,
acc,1778673189.0,188.0,-1.9967194865447462,0.34629858319680235,-9.838895188910227,,,,,,,,,,
acc,1778673189.0,188.0,-2.001896494243617,0.3484762986182515,-9.839258785857245,,,,,,,,,,
acc,1778673189.0,188.0,-2.0066714782605874,0.35272859179822796,-9.839619078392227,,,,,,,,,,
acc,1778673189.0,188.0,-2.0110480834605227,0.3590366165413437,-9.841041037312587,,,,,,,,,,
acc,1778673189.0,188.0,-2.0150299397385587,0.3639028949549541,-9.841385133266252,,,,,,,,,,
acc,1778673189.0,188.0,-2.019685565230924,0.36975438308839303,-9.8410161454664,,,,,,,,,,
acc,1778673189.0,188.0,-2.0246538537029513,0.3751977190770211,-9.842070423352697,,,,,,,,,,
acc,1778673189.0,188.0,-2.029576990207035,0.3799171256369641,-9.84240516419919,,,,,,,,,,
acc,1778673189.0,188.0,-2.033745429855333,0.3821442986042872,-9.842701367421707,,,,,,,,,,
acc,1778673189.0,188.0,-2.0371660318218323,0.3843512310223927,-9.843349851655384,,,,,,,,,,
acc,1778673189.0,188.0,-2.041975456403127,0.3896619066587672,-9.844382919719312,,,,,,,,,,
acc,1778673189.0,188.0,-2.0477706133425455,0.3935399062664486,-9.845371103858817,,,,,,,,,,
acc,1778673189.0,188.0,-2.05315812275861,0.39496882016528645,-9.844930399999551,,,,,,,,,,
acc,1778673189.0,188.0,-2.0578222128763786,0.39670423399544735,-9.845949103288628,,,,,,,,,,
acc,1778673189.0,188.0,-2.061378991199365,0.4015831649023463,-9.84766850163558,,,,,,,,,,
acc,1778673189.0,188.0,-2.0645484649988397,0.4064177565191416,-9.847242416474554,,,,,,,,,,
acc,1778673189.0,188.0,-2.0680441156046583,0.409469031176911,-9.847530155760156,,,,,,,,,,
acc,1778673189.0,188.0,-2.071153017664925,0.4131670236714098,-9.847460308711375,,,,,,,,,,
acc,1778673189.0,188.0,-2.073914190513113,0.4182158170389289,-9.847355601119027,,,,,,,,,,
acc,1778673189.0,188.0,-2.0762952991700523,0.42183432061543036,-9.846577389197467,,,,,,,,,,
acc,1778673189.0,188.0,-2.0775898378674533,0.4247454933068336,-9.84683567600268,,,,,,,,,,
acc,1778673189.0,188.0,-2.078872612016194,0.42794968521507126,-9.8464171602762,,,,,,,,,,
acc,1778673189.0,188.0,-2.0798242532304796,0.4293853823025475,-9.846321932348058,,,,,,,,,,
acc,1778673189.0,188.0,-2.081086721287202,0.4294236275200795,-9.846227569832848,,,,,,,,,,
acc,1778673189.0,188.0,-2.083047665860208,0.42843209148710465,-9.846489035103923,,,,,,,,,,
acc,1778673189.0,188.0,-2.084280840537001,0.4281240203857301,-9.847103094321652,,,,,,,,,,
acc,1778673189.0,188.0,-2.0848283546229975,0.42852869792241105,-9.845652725673858,,,,,,,,,,
acc,1778673189.0,188.0,-2.0864003163229277,0.4285747280592323,-9.845244960916586,,,,,,,,,,
acc,1778673189.0,188.0,-2.0879579924316,0.4293302882590787,-9.846615777299435,,,,,,,,,,
acc,1778673189.0,188.0,-2.089146543289449,0.42660023194931285,-9.846163766166427,,,,,,,,,,
acc,1778673189.0,188.0,-2.090004818680827,0.42527938614193933,-9.847490736852661,,,,,,,,,,
acc,1778673189.0,188.0,-2.090145346775534,0.42641986052684966,-9.848841143512175,,,,,,,,,,
acc,1778673189.0,188.0,-2.090994545057233,0.4268400233525104,-9.849469330809919,,,,,,,,,,
acc,1778673189.0,188.0,-2.0928654469627683,0.4269013989103954,-9.850091809333447,,,,,,,,,,
acc,1778673189.0,188.0,-2.095074324616059,0.4262522699663721,-9.850708630968626,,,,,,,,,,
acc,1778673189.0,188.0,-2.0976180974071084,0.42979771981274606,-9.85096486934341,,,,,,,,,,
acc,1778673189.0,188.0,-2.10152315067271,0.43366592746031457,-9.850863810536195,,,,,,,,,,
acc,1778673189.0,188.0,-2.105392716160556,0.43714400463256897,-9.850763670116578,,,,,,,,,,
acc,1778673189.0,188.0,-2.1085171706608152,0.43956105521020117,-9.850664439737631,,,,,,,,,,
acc,1778673189.0,188.0,-2.111968199464861,0.4433405365257301,-9.850566111128316,,,,,,,,,,
acc,1778673189.0,188.0,-2.115742843786055,0.44605625294313583,-9.850113698910853,,,,,,,,,,
acc,1778673189.0,188.0,-2.11983815355887,0.4466529498020293,-9.849984880130162,,,,,,,,,,
acc,1778673189.0,188.0,-2.12354127888531,0.4461793023339967,-9.849537750018385,,,,,,,,,,
acc,1778673189.0,188.0,-2.1261458302365903,0.44815926579302484,-9.848100760803076,,,,,,,,,,
acc,1778673190.0,189.0,-2.128407239782892,0.45083118962317315,-9.848345201940495,,,,,,,,,,
acc,1778673190.0,189.0,-2.1313225478146482,0.4534788321186466,-9.846883555681737,,,,,,,,,,
acc,1778673190.0,189.0,-2.1342113627607184,0.4578417744015067,-9.847529529213631,,,,,,,,,,
acc,1778673190.0,189.0,-2.136044509222099,0.46145512438607017,-9.847069217317038,,,,,,,,,,
acc,1778673190.0,189.0,-2.137860996853056,0.46503563783197,-9.84529969522147,,,,,,,,,,
acc,1778673190.0,189.0,-2.1403354164330195,0.46858361317068087,-9.845605084955373,,,,,,,,,,
acc,1778673190.0,189.0,-2.1431423257385323,0.47035997854653405,-9.843848868805942,,,,,,,,,,
acc,1778673190.0,189.0,-2.1452492790483837,0.47314962526464743,-9.843457499449642,,,,,,,,,,
acc,1778673190.0,189.0,-2.145242751854387,0.47733380655929714,-9.842430742708006,,,,,,,,,,
acc,1778673190.0,189.0,-2.146265698482462,0.48179943590605684,-9.840667879179172,,,,,,,,,,
acc,1778673190.0,189.0,-2.147989300577794,0.4883188161951717,-9.839950449947342,,,,,,,,,,
acc,1778673190.0,189.0,-2.1486323215059135,0.49477895154887663,-9.839559012100763,,,,,,,,,,
acc,1778673190.0,189.0,-2.1489500273176096,0.49979599108366407,-9.838177212543474,,,,,,,,,,
acc,1778673190.0,189.0,-2.148909870483511,0.5040574963839541,-9.838156864245047,,,,,,,,,,
acc,1778673190.0,189.0,-2.149544525494763,0.5086352416197393,-9.836823301835533,,,,,,,,,,
acc,1778673190.0,189.0,-2.1515932962303346,0.5149107503326473,-9.836850751681292,,,,,,,,,,
acc,1778673190.0,189.0,-2.154297895417852,0.5218391719087037,-9.838297834895428,,,,,,,,,,
acc,1778673190.0,189.0,-2.15594850409578,0.5273202439402584,-9.839341297822404,,,,,,,,,,
acc,1778673190.0,189.0,-2.1575841129241544,0.5334259532299261,-9.840410773098855,,,,,,,,,,
acc,1778673190.0,189.0,-2.1602342703165305,0.5405410840012698,-9.841790009800949,,,,,,,,,,
acc,1778673190.0,189.0,-2.162185898502594,0.5489759431647347,-9.842446762874836,,,,,,,,,,
acc,1778673190.0,189.0,-2.1630548758598587,0.5562692354743128,-9.841677666452165,,,,,,,,,,
acc,1778673190.0,189.0,-2.1639159564353605,0.5614374275070212,-9.842335440146273,,,,,,,,,,
acc,1778673190.0,189.0,-2.1654791614389826,0.5679430398870208,-9.842632270728833,,,,,,,,,,
acc,1778673190.0,189.0,-2.1673831264888124,0.5736795927430884,-9.843316873274746,,,,,,,,,,
acc,1778673190.0,189.0,-2.168559849317217,0.5804289206737154,-9.843249819733895,,,,,,,,,,
acc,1778673190.0,189.0,-2.1690159388250936,0.5877913598390953,-9.843928810206984,,,,,,,,,,
acc,1778673190.0,189.0,-2.1698228490205516,0.5954418679075734,-9.843501221430087,,,,,,,,,,
acc,1778673190.0,189.0,-2.1706224264915277,0.6030228526658641,-9.844887866790566,,,,,,,,,,
acc,1778673190.0,189.0,-2.1714147378774538,0.6098249972959958,-9.844806537325638,,,,,,,,,,
acc,1778673190.0,189.0,-2.1715254135690714,0.6158908924667272,-9.846145825793936,,,,,,,,,,
acc,1778673190.0,189.0,-2.1712801093097407,0.6229310741673,-9.845378620389898,,,,,,,,,,
acc,1778673190.0,189.0,-2.170682069176792,0.6295523048428772,-9.845683291117526,,,,,,,,,,
acc,1778673190.0,189.0,-2.1700894636659966,0.6361133658326281,-9.84563022819411,,,,,,,,,,
acc,1778673190.0,189.0,-2.1695022433881666,0.6408754557925694,-9.845932612405804,,,,,,,,,,
acc,1778673190.0,189.0,-2.1689203594030286,0.6449198357607847,-9.845877283862954,,,,,,,,,,
acc,1778673190.0,189.0,-2.1676338244903888,0.6482175151246689,-9.84447356999061,,,,,,,,,,
acc,1778673190.0,189.0,-2.1656845368402116,0.6504558185384339,-9.844076526245257,,,,,,,,,,
acc,1778673190.0,189.0,-2.16410793687575,0.6530287554682424,-9.84304415046933,,,,,,,,,,
acc,1778673190.0,189.0,-2.1632200987092935,0.6548683727907795,-9.842979575376912,,,,,,,,,,
acc,1778673190.0,189.0,-2.1626953023368336,0.6574012111495317,-9.842951081744408,,,,,,,,,,
acc,1778673190.0,189.0,-2.1621752749743464,0.6619698489287975,-9.843277811596685,,,,,,,,,,
acc,1778673190.0,189.0,-2.1613049996921267,0.6661775000309652,-9.844666484023474,,,,,,,,,,
acc,1778673190.0,189.0,-2.1611525708960517,0.6710213581202392,-9.843912723122127,,,,,,,,,,
acc,1778673190.0,189.0,-2.161675970546537,0.6751467551420214,-9.845615095376692,,,,,,,,,,
acc,1778673190.0,189.0,-2.1621946138874972,0.6788796989294245,-9.84659205979736,,,,,,,,,,
acc,1778673190.0,189.0,-2.1620341010482726,0.683253154216006,-9.846175765412598,,,,,,,,,,
acc,1778673190.0,189.0,-2.162230020194189,0.6890067417007295,-9.846828165001039,,,,,,,,,,
acc,1778673190.0,189.0,-2.1610042839058976,0.695382487374649,-9.84605476096808,,,,,,,,,,
acc,1778673190.0,189.0,-2.159470216705,0.7013453213201043,-9.84425897809492,,,,,,,,,,
acc,1778673190.0,189.0,-2.157595116845356,0.7076089423014217,-9.844218858314397,,,,,,,,,,
acc,1778673190.0,189.0,-2.156092029789348,0.7138156437720264,-9.842794723175249,,,,,,,,,,
acc,1778673190.0,189.0,-2.155277035264681,0.7199659429977225,-9.842732414788333,,,,,,,,,,
acc,1778673190.0,189.0,-2.1544694468485353,0.7250309460204535,-9.841676751590503,,,,,,,,,,
acc,1778673190.0,189.0,-2.1540241702897585,0.730404885768317,-9.8416246024424,,,,,,,,,,
acc,1778673190.0,189.0,-2.1535829400946866,0.7357299908889794,-9.842637828055064,,,,,,,,,,
acc,1778673190.0,189.0,-2.153145719491449,0.7413261744895483,-9.84222197245794,,,,,,,,,,
acc,1778673190.0,189.0,-2.1523574991062473,0.7468715038988186,-9.842910300153454,,,,,,,,,,
acc,1778673190.0,189.0,-2.1519314144113215,0.7520469720124593,-9.842846941538006,,,,,,,,,,
acc,1778673190.0,189.0,-2.151154228811072,0.7574948783464086,-9.843884553651616,,,,,,,,,,
acc,1778673190.0,189.0,-2.14970967280152,0.7618638722298162,-9.844522269301134,,,,,,,,,,
acc,1778673190.0,189.0,-2.149307649530037,0.7665481366007567,-9.845899629978112,,,,,,,,,,
acc,1778673190.0,189.0,-2.148199343135501,0.7704798973055469,-9.848684347032526,,,,,,,,,,
acc,1778673190.0,189.0,-2.146426666425147,0.7726365781088935,-9.850343354957014,,,,,,,,,,
acc,1778673190.0,189.0,-2.1439601622360773,0.7737442552070152,-9.85237775424284,,,,,,,,,,
acc,1778673190.0,189.0,-2.141161108286215,0.7737769667489645,-9.854713135407033,,,,,,,,,,
acc,1778673190.0,189.0,-2.138387490107114,0.7748742807226849,-9.856707825323772,,,,,,,,,,
acc,1778673190.0,189.0,-2.1353195984931546,0.7748967235112028,-9.858684388951207,,,,,,,,,,
acc,1778673190.0,189.0,-2.1325990636653036,0.7756288983858454,-9.859933054982859,,,,,,,,,,
acc,1778673190.0,189.0,-2.1295837730624863,0.7788036966109827,-9.861134879526348,,,,,,,,,,
acc,1778673190.0,189.0,-2.1265958832032044,0.7840084541943088,-9.86090591095616,,,,,,,,,,
acc,1778673190.0,189.0,-2.123280181701984,0.7895208872482624,-9.85996907814745,,,,,,,,,,
acc,1778673190.0,189.0,-2.119639638403629,0.7939538227649509,-9.860496133768278,,,,,,,,,,
acc,1778673190.0,189.0,-2.1163871500712244,0.7987014383768234,-9.860982896296727,,,,,,,,,,
acc,1778673190.0,189.0,-2.1131642179318217,0.8044353247395488,-9.862175180254264,,,,,,,,,,
acc,1778673190.0,189.0,-2.1099705733938623,0.8108270323584285,-9.863037151779748,,,,,,,,,,
acc,1778673190.0,189.0,-2.1071609135473697,0.8168056936825382,-9.863500823518883,,,,,,,,,,
acc,1778673190.0,189.0,-2.1046962635777904,0.8227300254202848,-9.864315254058504,,,,,,,,,,
acc,1778673190.0,189.0,-2.1029639368680573,0.8292749622518841,-9.86405738501528,,,,,,,,,,
acc,1778673190.0,189.0,-2.1026317285612457,0.8354409458858262,-9.864547289202056,,,,,,,,,,
acc,1778673190.0,189.0,-2.1012731351095564,0.8408409714510603,-9.863932339427851,,,,,,,,,,
acc,1778673190.0,189.0,-2.0992169522123523,0.8461919256798314,-9.864423379856653,,,,,,,,,,
acc,1778673190.0,189.0,-2.0978893896057262,0.8514942545052729,-9.863170609871558,,,,,,,,,,
acc,1778673190.0,189.0,-2.0972483316034496,0.8574583259369709,-9.863633068624301,,,,,,,,,,
acc,1778673190.0,189.0,-2.0973230342160845,0.8643976132554434,-9.864126828479085,,,,,,,,,,
acc,1778673190.0,189.0,-2.0970420858831496,0.8709188695394477,-9.86461610142243,,,,,,,,,,
acc,1778673190.0,189.0,-2.0967636905930234,0.8763514620594562,-9.864745956145894,,,,,,,,,,
acc,1778673190.0,189.0,-2.096487825145135,0.8817346873577236,-9.864129201335167,,,,,,,,,,
acc,1778673190.0,189.0,-2.095185063084604,0.8856846185504048,-9.864618452624518,,,,,,,,,,
acc,1778673190.0,189.0,-2.0942491115369317,0.8878593174684265,-9.862653984676104,,,,,,,,,,
acc,1778673190.0,189.0,-2.0933216651922932,0.8920730610916014,-9.862091734543752,,,,,,,,,,
acc,1778673190.0,189.0,-2.092402646760511,0.897313420323446,-9.861144127256654,,,,,,,,,,
acc,1778673190.0,189.0,-2.091137007697728,0.9021511963754052,-9.859246725889554,,,,,,,,,,
acc,1778673190.0,189.0,-2.08881797214246,0.9072999733359098,-9.858324971773035,,,,,,,,,,
acc,1778673190.0,189.0,-2.0862005327212207,0.9124019622296117,-9.857802060220907,,,,,,,,,,
acc,1778673190.0,189.0,-2.083926355976935,0.9174575882375037,-9.855544562716736,,,,,,,,,,
acc,1778673190.0,189.0,-2.0816728451694106,0.9224672726765931,-9.854656450912206,,,,,,,,,,
acc,1778673190.0,189.0,-2.079120335098979,0.9274314330350222,-9.853776409570779,,,,,,,,,,
acc,1778673190.0,189.0,-2.0755261228803916,0.9319955202516151,-9.851590988619284,,,,,,,,,,
acc,1778673190.0,189.0,-2.071964572031778,0.936518132638091,-9.852194176388188,,,,,,,,,,
acc,1778673190.0,189.0,-2.0680804139403026,0.9409996470911557,-9.850697573735298,,,,,,,,,,
acc,1778673190.0,189.0,-2.063876589305212,0.9433461280561832,-9.849605037267585,,,,,,,,,,
acc,1778673190.0,189.0,-2.059710965700885,0.9467361832050338,-9.850190768070664,,,,,,,,,,
acc,1778673190.0,189.0,-2.0552637186740315,0.9493854977940606,-9.850096745326923,,,,,,,,,,
acc,1778673190.0,189.0,-2.0515313246426987,0.9516557748624925,-9.850003576987215,,,,,,,,,,
acc,1778673190.0,189.0,-2.048542782001977,0.9532309815427419,-9.849911255287278,,,,,,,,,,
acc,1778673190.0,189.0,-2.0455813968563166,0.9551113421764574,-9.84910983820259,,,,,,,,,,
acc,1778673190.0,189.0,-2.043676333967062,0.9573295872863721,-9.848315703757065,,,,,,,,,,
acc,1778673190.0,189.0,-2.040759171260575,0.9602376090268337,-9.84784825392066,,,,,,,,,,
acc,1778673190.0,189.0,-2.0371585831545556,0.9645035790327692,-9.84706558375801,,,,,,,,,,
acc,1778673190.0,189.0,-2.0332357517465187,0.9687307833210098,-9.84625452234882,,,,,,,,,,
acc,1778673190.0,189.0,-2.029703530430983,0.9732745367158296,-9.845841297287354,,,,,,,,,,
acc,1778673190.0,189.0,-2.025848444571347,0.9777770001300239,-9.847881097845434,,,,,,,,,,
acc,1778673190.0,189.0,-2.0220283906309082,0.9818835862585187,-9.847453091869658,,,,,,,,,,
acc,1778673190.0,189.0,-2.0193079468705433,0.9859528550399835,-9.847348452427923,,,,,,,,,,
acc,1778673190.0,189.0,-2.0173221583827683,0.990340108081871,-9.847954688851598,,,,,,,,,,
acc,1778673190.0,189.0,-2.01464448108958,0.9946874933108252,-9.847171051710612,,,,,,,,,,
acc,1778673190.0,189.0,-2.011636173895284,0.9996698126104187,-9.847068975223172,,,,,,,,,,
acc,1778673190.0,189.0,-2.0079452697646736,1.0042873795112266,-9.847358283207193,,,,,,,,,,
acc,1778673190.0,189.0,-2.0046428680221977,1.0085080232636316,-9.846544562265835,,,,,,,,,,
acc,1778673190.0,189.0,-2.0020804097754286,1.0137197151830373,-9.847193607169155,,,,,,,,,,
acc,1778673190.0,189.0,-1.999541237067771,1.0195939814039665,-9.84854668800393,,,,,,,,,,
acc,1778673190.0,189.0,-1.9973801097909332,1.024349970762443,-9.847438194366614,,,,,,,,,,
acc,1778673190.0,189.0,-1.9948836495968614,1.0304826093174848,-9.848043615124435,,,,,,,,,,
acc,1778673190.0,189.0,-1.9924098751985537,1.0372339588856745,-9.84899850578315,,,,,,,,,,
acc,1778673190.0,189.0,-1.9899585804438673,1.0418296506162648,-9.851009615381171,,,,,,,,,,
acc,1778673191.0,190.0,-1.9875295610540784,1.0463835804534476,-9.851973047902263,,,,,,,,,,
acc,1778673191.0,190.0,-1.9854775860456577,1.0502216885262499,-9.853957127260545,,,,,,,,,,
acc,1778673191.0,190.0,-1.9823793525091553,1.0522855835499756,-9.855568214587962,,,,,,,,,,
acc,1778673191.0,190.0,-1.9793092731813444,1.055005153832384,-9.85716466167335,,,,,,,,,,
acc,1778673191.0,190.0,-1.9769770259462502,1.0573805429835479,-9.861870309963264,,,,,,,,,,
acc,1778673191.0,190.0,-1.9753759059691343,1.0593793842364827,-9.863054526552537,,,,,,,,,,
acc,1778673191.0,190.0,-1.9741088126309088,1.0623894632399875,-9.868097118290438,,,,,,,,,,
acc,1778673191.0,190.0,-1.9728532335952398,1.065727160498957,-9.870928591677115,,,,,,,,,,
acc,1778673191.0,190.0,-1.9709346249877873,1.0707738626865477,-9.873485855913636,,,,,,,,,,
acc,1778673191.0,190.0,-1.9686784797550476,1.0754197332406905,-9.876268360882273,,,,,,,,,,
acc,1778673191.0,190.0,-1.9660878742464993,1.08073331956786,-9.876256835096333,,,,,,,,,,
acc,1778673191.0,190.0,-1.963520810023699,1.0859986204059182,-9.878055746992557,,,,,,,,,,
acc,1778673191.0,190.0,-1.9606221018275347,1.0894767395378118,-9.878027978961809,,,,,,,,,,
acc,1778673191.0,190.0,-1.9570752955397315,1.0950175586793625,-9.879420330389824,,,,,,,,,,
acc,1778673191.0,190.0,-1.9542351588350817,1.099088160346235,-9.879380162187218,,,,,,,,,,
acc,1778673191.0,190.0,-1.9521307644719856,1.1045416388131242,-9.878665919875074,,,,,,,,,,
acc,1778673191.0,190.0,-1.9489805973754493,1.1095905892840245,-9.877603205792392,,,,,,,,,,
acc,1778673191.0,190.0,-1.9451846172921463,1.113528763375047,-9.877224587868906,,,,,,,,,,
acc,1778673191.0,190.0,-1.941423131927352,1.1181410840882373,-9.87337073190629,,,,,,,,,,
acc,1778673191.0,190.0,-1.9380507900091353,1.1227114918591112,-9.873421031708734,,,,,,,,,,
acc,1778673191.0,190.0,-1.934354130951022,1.1262109572403636,-9.870311672841064,,,,,,,,,,
acc,1778673191.0,190.0,-1.931365503094487,1.1293236602141405,-9.86620116803094,,,,,,,,,,
acc,1778673191.0,190.0,-1.9280845565468119,1.1327630396997639,-9.865571190895377,,,,,,,,,,
acc,1778673191.0,190.0,-1.9237685289423638,1.1351062693989082,-9.861148792463604,,,,,,,,,,
acc,1778673191.0,190.0,-1.9205566173495268,1.138493101325359,-9.859925782436742,,,,,,,,,,
acc,1778673191.0,190.0,-1.9176933697689695,1.1411392322527316,-9.858749389590153,,,,,,,,,,
acc,1778673191.0,190.0,-1.9148561409947848,1.1437613173488241,-9.854353487730682,,,,,,,,,,
acc,1778673191.0,190.0,-1.9117252177639075,1.1460046039031706,-9.852482303439833,,,,,,,,,,
acc,1778673191.0,190.0,-1.907202879068534,1.148227505342254,-9.850663617304782,,,,,,,,,,
acc,1778673191.0,190.0,-1.903076606816616,1.153234445825928,-9.848861457869987,,,,,,,,,,
acc,1778673191.0,190.0,-1.9007271650279203,1.1592252884547989,-9.850163887146026,,,,,,,,,,
acc,1778673191.0,190.0,-1.8987540441961426,1.1641322902992286,-9.848011297700468,,,,,,,,,,
acc,1778673191.0,190.0,-1.8957694433485117,1.1700241024169056,-9.848647013563498,,,,,,,,,,
acc,1778673191.0,190.0,-1.8921020398627666,1.1744780025138901,-9.849596420276706,,,,,,,,,,
acc,1778673191.0,190.0,-1.887758020313288,1.1771520950654486,-9.847413493201842,,,,,,,,,,
acc,1778673191.0,190.0,-1.8851928188640281,1.1801568497895567,-9.848409603454344,,,,,,,,,,
acc,1778673191.0,190.0,-1.8826509278142838,1.181714433333816,-9.848331766569217,,,,,,,,,,
acc,1778673191.0,190.0,-1.8798126585672368,1.183967805186228,-9.847899665840142,,,,,,,,,,
acc,1778673191.0,190.0,-1.8766452190607585,1.1862007002869017,-9.848181424902265,,,,,,,,,,
acc,1778673191.0,190.0,-1.8738615246465709,1.1870289326773682,-9.847715195974008,,,,,,,,,,
acc,1778673191.0,190.0,-1.8714226028640848,1.1888790396580882,-9.847288698130765,,,,,,,,,,
acc,1778673191.0,190.0,-1.869360806004371,1.1900378956185678,-9.846830581553595,,,,,,,,,,
acc,1778673191.0,190.0,-1.8669627829734128,1.1922156307986767,-9.845773187022445,,,,,,,,,,
acc,1778673191.0,190.0,-1.8642670744155163,1.193663634295651,-9.846784202855844,,,,,,,,,,
acc,1778673191.0,190.0,-1.8605309669890242,1.1923297447697585,-9.847786031428468,,,,,,,,,,
acc,1778673191.0,190.0,-1.8582131820782255,1.1910079765084562,-9.847358889922964,,,,,,,,,,
acc,1778673191.0,190.0,-1.8559164592437825,1.1924669540757444,-9.848355496204636,,,,,,,,,,
acc,1778673191.0,190.0,-1.8539955691135694,1.1946226159052045,-9.846893779130268,,,,,,,,,,
acc,1778673191.0,190.0,-1.8514176956731292,1.1971136509163738,-9.845800306926607,,,,,,,,,,
acc,1778673191.0,190.0,-1.8491827244890524,1.201321383363894,-9.84610114312273,,,,,,,,,,
acc,1778673191.0,190.0,-1.8466485861234747,1.2058458505870457,-9.846363751189848,,,,,,,,,,
acc,1778673191.0,190.0,-1.8455218476810182,1.2106841652775808,-9.847014438372351,,,,,,,,,,
acc,1778673191.0,190.0,-1.8444053480858582,1.2178922859559882,-9.846239346479779,,,,,,,,,,
acc,1778673191.0,190.0,-1.843298994295642,1.2246799433269207,-9.847246126127667,,,,,,,,,,
acc,1778673191.0,190.0,-1.841847732120375,1.2321158532784036,-9.845439528188402,,,,,,,,,,
acc,1778673191.0,190.0,-1.8404096577886222,1.2377448491419947,-9.845033709745948,,,,,,,,,,
acc,1778673191.0,190.0,-1.8393396134452442,1.243322693452555,-9.843957140361653,,,,,,,,,,
acc,1778673191.0,190.0,-1.8386342638280038,1.249204822102365,-9.843884269286127,,,,,,,,,,
acc,1778673191.0,190.0,-1.837935323831038,1.2543235659034775,-9.843137621739107,,,,,,,,,,
acc,1778673191.0,190.0,-1.8372427352089435,1.260780166585398,-9.844172587136944,,,,,,,,,,
acc,1778673191.0,190.0,-1.8362014691881179,1.2647643228545564,-9.845162653266277,,,,,,,,,,
acc,1778673191.0,190.0,-1.835524636364554,1.2697416750955597,-9.845469283872045,,,,,,,,,,
acc,1778673191.0,190.0,-1.8358833546221323,1.2753837303917672,-9.846838032142907,,,,,,,,,,
acc,1778673191.0,190.0,-1.8348544415171812,1.2816489541012714,-9.848194342389956,,,,,,,,,,
acc,1778673191.0,190.0,-1.8334799163454294,1.2882122067277035,-9.847373025174095,,,,,,,,,,
acc,1778673191.0,190.0,-1.8321178816923545,1.2923020459043992,-9.847624075426113,,,,,,,,,,
acc,1778673191.0,190.0,-1.8311231860042925,1.295289825156427,-9.848973242748082,,,,,,,,,,
acc,1778673191.0,190.0,-1.8301375292662927,1.3010546915519154,-9.847896377848668,,,,,,,,,,
acc,1778673191.0,190.0,-1.8288058673962213,1.3095359057928055,-9.849243070695785,,,,,,,,,,
acc,1778673191.0,190.0,-1.8253920020103318,1.3165556784023646,-9.849122165629153,,,,,,,,,,
acc,1778673191.0,190.0,-1.822719091894871,1.3231566993447443,-9.848682882596739,,,,,,,,,,
acc,1778673191.0,190.0,-1.82074490949526,1.3307271363330215,-9.847857125997535,,,,,,,,,,
acc,1778673191.0,190.0,-1.8187886667871913,1.3375543410503918,-9.847074376635266,,,,,,,,,,
acc,1778673191.0,190.0,-1.8165307241091244,1.3429351435094306,-9.847683102660342,,,,,,,,,,
acc,1778673191.0,190.0,-1.8132284048288707,1.3472021458598193,-9.846617961509686,,,,,,,,,,
acc,1778673191.0,190.0,-1.8096011232067062,1.351075411399521,-9.846911367485777,,,,,,,,,,
acc,1778673191.0,190.0,-1.8070717071691924,1.3545940033647264,-9.845853239218243,,,,,,,,,,
acc,1778673191.0,190.0,-1.8045652763118545,1.3587550599092089,-9.845443661406746,,,,,,,,,,
acc,1778673191.0,190.0,-1.8020816217644302,1.3628783043141115,-9.845712244033166,,,,,,,,,,
acc,1778673191.0,190.0,-1.7989106036423101,1.3676740130971894,-9.846723813295608,,,,,,,,,,
acc,1778673191.0,190.0,-1.7968332958496305,1.371361247745835,-9.846980762997191,,,,,,,,,,
acc,1778673191.0,190.0,-1.79580427438441,1.3750149759470862,-9.847270872132114,,,,,,,,,,
acc,1778673191.0,190.0,-1.7937551942726448,1.377251130757649,-9.846493450199638,,,,,,,,,,
acc,1778673191.0,190.0,-1.7920442110717079,1.379821927201896,-9.84540361619801,,,,,,,,,,
acc,1778673191.0,190.0,-1.7900292992125888,1.383753733843105,-9.8471279228586,,,,,,,,,,
acc,1778673191.0,190.0,-1.788707135665625,1.389389144870705,-9.845712855802965,,,,,,,,,,
acc,1778673191.0,190.0,-1.7877519577965186,1.3935889747028734,-9.845978992207414,,,,,,,,,,
acc,1778673191.0,190.0,-1.7864504887883013,1.3967212396674833,-9.846597672084936,,,,,,,,,,
acc,1778673191.0,190.0,-1.7855158173987857,1.4008544416703559,-9.846181329537519,,,,,,,,,,
acc,1778673191.0,190.0,-1.7856545342606511,1.4039206842764405,-9.845768770355908,,,,,,,,,,
acc,1778673191.0,190.0,-1.7843721248585704,1.405894168737583,-9.846034398650483,,,,,,,,,,
acc,1778673191.0,190.0,-1.783456339870831,1.407849719856546,-9.844984239627037,,,,,,,,,,
acc,1778673191.0,190.0,-1.7821939057848244,1.4097875005965417,-9.845966929913118,,,,,,,,,,
acc,1778673191.0,190.0,-1.7809429436217616,1.410678262992612,-9.846585719380652,,,,,,,,,,
acc,1778673191.0,190.0,-1.7811232148258311,1.4108510071422418,-9.845814523584226,,,,,,,,,,
acc,1778673191.0,190.0,-1.7805919150373126,1.4110221815406028,-9.848883973102563,,,,,,,,,,
acc,1778673191.0,190.0,-1.7786810719412283,1.4111918004522785,-9.847452948662426,,,,,,,,,,
acc,1778673191.0,190.0,-1.777817002379623,1.4117148398858699,-9.847703272582248,,,,,,,,,,
acc,1778673191.0,190.0,-1.7783451560355525,1.4132625267169823,-9.849371187433826,,,,,,,,,,
acc,1778673191.0,190.0,-1.7771291680404306,1.4162160151476084,-9.850668983830912,,,,,,,,,,
acc,1778673191.0,190.0,-1.774894829581979,1.418787702932107,-9.852345443201573,,,,,,,,,,
acc,1778673191.0,190.0,-1.7747750989726343,1.4241047548726207,-9.851521908015439,,,,,,,,,,
acc,1778673191.0,190.0,-1.7739465235557343,1.4307578612570357,-9.852835654863611,,,,,,,,,,
acc,1778673191.0,190.0,-1.7727705065731376,1.4349367383348461,-9.852007665063216,,,,,,,,,,
acc,1778673191.0,190.0,-1.770220814061968,1.4369833372901843,-9.85090322620167,,,,,,,,,,
acc,1778673191.0,190.0,-1.7666648815891106,1.4417800809968424,-9.849773320079855,,,,,,,,,,
acc,1778673191.0,190.0,-1.7638157008234125,1.4462137685112024,-9.848653681578021,,,,,,,,,,
acc,1778673191.0,190.0,-1.7613473819182044,1.4516365667574802,-9.847224749904033,,,,,,,,,,
acc,1778673191.0,190.0,-1.7581915510973967,1.4577200200527967,-9.847477147485021,,,,,,,,,,
acc,1778673191.0,190.0,-1.7554193687066186,1.4647775924132367,-9.8463783746388,,,,,,,,,,
acc,1778673191.0,190.0,-1.7530273484755896,1.4731554028148108,-9.845964024923742,,,,,,,,,,
acc,1778673191.0,190.0,-1.751366988578287,1.4807826444275758,-9.845908411402279,,,,,,,,,,
acc,1778673191.0,190.0,-1.7497217166098344,1.487630643413957,-9.844859397347896,,,,,,,,,,
acc,1778673191.0,190.0,-1.749830737599191,1.4919671478189338,-9.843429450531978,,,,,,,,,,
acc,1778673191.0,190.0,-1.7492288351182343,1.4973291404143385,-9.842651432807129,,,,,,,,,,
acc,1778673191.0,190.0,-1.7476029928675036,1.5015775131907543,-9.84191598849511,,,,,,,,,,
acc,1778673191.0,190.0,-1.7466663632868156,1.50685217501531,-9.841861665679554,,,,,,,,,,
acc,1778673191.0,190.0,-1.7457382449931647,1.5144926766616258,-9.842872731119302,,,,,,,,,,
acc,1778673191.0,190.0,-1.744463598801447,1.5203244149606387,-9.841496331809513,,,,,,,,,,
acc,1778673191.0,190.0,-1.7446204010380941,1.529262357966686,-9.84045190751083,,,,,,,,,,
acc,1778673191.0,190.0,-1.7437108746982994,1.534640414599759,-9.840410889004037,,,,,,,,,,
acc,1778673191.0,190.0,-1.7417802131191393,1.536810401539628,-9.838701898972682,,,,,,,,,,
acc,1778673191.0,190.0,-1.7408964959687672,1.5396705931724974,-9.837966841189473,,,,,,,,,,
acc,1778673191.0,190.0,-1.7407307420407947,1.5425047938362877,-9.840823630227826,,,,,,,,,,
acc,1778673191.0,190.0,-1.7391821231955602,1.5428639739769971,-9.840104795435073,,,,,,,,,,
acc,1778673192.0,191.0,-1.737292615036718,1.544284793871519,-9.841167320138387,,,,,,,,,,
acc,1778673192.0,191.0,-1.7347103443553342,1.5460476644059413,-9.841119800578232,,,,,,,,,,
acc,1778673192.0,191.0,-1.7325065100533688,1.548113992037936,-9.840078797898075,,,,,,,,,,
acc,1778673192.0,191.0,-1.7310326259675928,1.549487104274861,-9.841106064469432,,,,,,,,,,
acc,1778673192.0,191.0,-1.729217173446559,1.5508477388458446,-9.840704130632043,,,,,,,,,,
acc,1778673192.0,191.0,-1.7274182182003184,1.557768978903778,-9.841725714711945,,,,,,,,,,
acc,1778673192.0,191.0,-1.7242512391974756,1.5635624210150678,-9.844548346275586,,,,,,,,,,
acc,1778673192.0,191.0,-1.722142448270008,1.5710425593241408,-9.842411293372578,,,,,,,,,,
acc,1778673192.0,191.0,-1.7207627438753386,1.5795196191194074,-9.845476173702286,,,,,,,,,,
acc,1778673192.0,191.0,-1.7169463113825523,1.586499781199391,-9.846454393552278,,,,,,,,,,
acc,1778673192.0,191.0,-1.7131645593522205,1.5930970460996048,-9.844300020149705,,,,,,,,,,
acc,1778673192.0,191.0,-1.7104465728279152,1.600308799087495,-9.84947752644269,,,,,,,,,,
acc,1778673192.0,191.0,-1.7081082559404859,1.6074550178558304,-9.848396079426529,,,,,,,,,,
acc,1778673192.0,191.0,-1.70753052058304,1.6173405253872875,-9.84899279476967,,,,,,,,,,
acc,1778673192.0,191.0,-1.7052187022788226,1.6253968690051452,-9.85064899131038,,,,,,,,,,
acc,1778673192.0,191.0,-1.703282862700375,1.6270971011423758,-9.848811471948201,,,,,,,,,,
acc,1778673192.0,191.0,-1.702074538006129,1.6256581790455573,-9.851569714180398,,,,,,,,,,
acc,1778673192.0,191.0,-1.7008771935289113,1.6238773708194085,-9.850717724814002,,,,,,,,,,
acc,1778673192.0,191.0,-1.7017850332872573,1.6224677068655302,-9.84927003705449,,,,,,,,,,
acc,1778673192.0,191.0,-1.703004099916601,1.6231651565195475,-9.85202411222333,,,,,,,,,,
acc,1778673192.0,191.0,-1.7035376503623036,1.6294292379103872,-9.85191342985316,,,,,,,,,,
acc,1778673192.0,191.0,-1.7068350854085008,1.6352814348966844,-9.852123220719669,,,,,,,,,,
acc,1778673192.0,191.0,-1.709747594384391,1.6410804521447866,-9.854105932429583,,,,,,,,,,
acc,1778673192.0,191.0,-1.7129885987941331,1.6454424018446667,-9.852946923021893,,,,,,,,,,
acc,1778673192.0,191.0,-1.7158451899285132,1.6500841813422265,-9.853892749466691,,,,,,,,,,
acc,1778673192.0,191.0,-1.7180013844709892,1.6550387421480608,-9.854084553979654,,,,,,,,,,
acc,1778673192.0,191.0,-1.71839865250573,1.6564696144336994,-9.854310109901691,,,,,,,,,,
acc,1778673192.0,191.0,-1.7198217106639908,1.6624310535093196,-9.854498121801774,,,,,,,,,,
acc,1778673192.0,191.0,-1.7219417699989186,1.6690127584930057,-9.85432946340182,,,,,,,,,,
acc,1778673192.0,191.0,-1.7247170023982332,1.6755346545990473,-9.854872261242097,,,,,,,,,,
acc,1778673192.0,191.0,-1.72679257753094,1.6823522471276302,-9.854345232090477,,,,,,,,,,
acc,1778673192.0,191.0,-1.7288492916210876,1.6870135834925313,-9.856662722935777,,,,,,,,,,
acc,1778673192.0,191.0,-1.7305323451676329,1.691277599832897,-9.85579995616881,,,,,,,,,,
acc,1778673192.0,191.0,-1.7314901809578511,1.6951834010155522,-9.854661056404545,,,,,,,,,,
acc,1778673192.0,191.0,-1.7314099035315786,1.6962494732038447,-9.85413594650418,,,,,,,,,,
acc,1778673192.0,191.0,-1.7302654610949193,1.6966314195103602,-9.850172437040216,,,,,,,,,,
acc,1778673192.0,191.0,-1.729131418367052,1.6997786370764312,-9.850078581102212,,,,,,,,,,
acc,1778673192.0,191.0,-1.7280076808443163,1.7046365882670036,-9.849630607155104,,,,,,,,,,
acc,1778673192.0,191.0,-1.7258647547472004,1.7129290693193113,-9.848512265678837,,,,,,,,,,
acc,1778673192.0,191.0,-1.7230313599394156,1.7201167862151585,-9.848398001585451,,,,,,,,,,
acc,1778673192.0,191.0,-1.7205786834763386,1.7240799891143281,-9.847610337496768,,,,,,,,,,
acc,1778673192.0,191.0,-1.7188582275183288,1.7262678450133755,-9.847184792823734,,,,,,,,,,
acc,1778673192.0,191.0,-1.7167984437829131,1.727051448542855,-9.846124180257378,,,,,,,,,,
acc,1778673192.0,191.0,-1.7144024067023558,1.7285378640463156,-9.845357178701263,,,,,,,,,,
acc,1778673192.0,191.0,-1.7113537044204856,1.733489446998282,-9.84527158532075,,,,,,,,,,
acc,1778673192.0,191.0,-1.7097170771335237,1.7394254343480844,-9.843482931290767,,,,,,,,,,
acc,1778673192.0,191.0,-1.708450283906785,1.7460174132373338,-9.845224690989781,,,,,,,,,,
acc,1778673192.0,191.0,-1.7064850786092232,1.7462665879033679,-9.844465863221272,,,,,,,,,,
acc,1778673192.0,191.0,-1.7038277896354623,1.7444191945946828,-9.845098292945211,,,,,,,,,,
acc,1778673192.0,191.0,-1.7026145131839037,1.7453928160899914,-9.847890277190894,,,,,,,,,,
acc,1778673192.0,191.0,-1.7031516038316947,1.7449732282358252,-9.849201530559178,,,,,,,,,,
acc,1778673192.0,191.0,-1.7022639484990527,1.7442024823507836,-9.852950133864102,,,,,,,,,,
acc,1778673192.0,191.0,-1.701739321210956,1.7455330440204664,-9.853185998409653,,,,,,,,,,
acc,1778673192.0,191.0,-1.7026393266435715,1.7506851511609554,-9.856507929049588,,,,,,,,,,
acc,1778673192.0,191.0,-1.702466259126595,1.7571748113809367,-9.86054509988356,,,,,,,,,,
acc,1778673192.0,191.0,-1.7036791352922491,1.7649898701476725,-9.861776851482482,,,,,,,,,,
acc,1778673192.0,191.0,-1.705590913473233,1.773763312496273,-9.867860446550303,,,,,,,,,,
acc,1778673192.0,191.0,-1.7064559189503667,1.7821375528318149,-9.871403990230725,,,,,,,,,,
acc,1778673192.0,191.0,-1.70589319865081,1.7893708008086577,-9.873956930939158,,,,,,,,,,
acc,1778673192.0,191.0,-1.7074298955318743,1.7947989864717013,-9.875031313007893,,,,,,,,,,
acc,1778673192.0,191.0,-1.7082781899220818,1.800177845455625,-9.875385990255795,,,,,,,,,,
acc,1778673192.0,191.0,-1.7073439486029218,1.8037684841336117,-9.878151224679117,,,,,,,,,,
acc,1778673192.0,191.0,-1.7071281295374543,1.8049127321777976,-9.8770931889612,,,,,,,,,,
acc,1778673192.0,191.0,-1.7069142716498744,1.8032423459543099,-9.879203965880011,,,,,,,,,,
acc,1778673192.0,191.0,-1.7063473862394245,1.8033264715359714,-9.879875696532471,,,,,,,,,,
acc,1778673192.0,191.0,-1.7054306904037946,1.8086278400581768,-9.878127551994659,,,,,,,,,,
acc,1778673192.0,191.0,-1.7034929246109818,1.8124966633287902,-9.877389198827496,,,,,,,,,,
acc,1778673192.0,191.0,-1.6998334257101058,1.817359730163063,-9.87424378410236,,,,,,,,,,
acc,1778673192.0,191.0,-1.695852219393835,1.820119805436966,-9.873540723271958,,,,,,,,,,
acc,1778673192.0,191.0,-1.6932915527403627,1.8214349341868759,-9.869365376635749,,,,,,,,,,
acc,1778673192.0,191.0,-1.6893697933344722,1.8258973102775895,-9.86945207359824,,,,,,,,,,
acc,1778673192.0,191.0,-1.6848092331960562,1.8330878780809854,-9.866023822847627,,,,,,,,,,
acc,1778673192.0,191.0,-1.6809645538061486,1.8398581333187864,-9.866815323275572,,,,,,,,,,
acc,1778673192.0,191.0,-1.6771548115520518,1.8458924280023457,-9.865185860165736,,,,,,,,,,
acc,1778673192.0,191.0,-1.6747640508367392,1.8529012973916246,-9.863251736786019,,,,,,,,,,
acc,1778673192.0,191.0,-1.6741343571396847,1.860556399788669,-9.862648562211781,,,,,,,,,,
acc,1778673192.0,191.0,-1.6721260145900794,1.8688163775097082,-9.860382524736432,,,,,,,,,,
acc,1778673192.0,191.0,-1.6701359221280954,1.8770012956662376,-9.85671721373132,,,,,,,,,,
acc,1778673192.0,191.0,-1.66954828487714,1.886176739873099,-9.854860046117125,,,,,,,,,,
acc,1778673192.0,191.0,-1.6696759202298797,1.8928195401311785,-9.853019754842844,,,,,,,,,,
acc,1778673192.0,191.0,-1.6701573575298387,1.8990470054667923,-9.851160692189488,,,,,,,,,,
acc,1778673192.0,191.0,-1.6709893908165114,1.9062827754092089,-9.850028446670724,,,,,,,,,,
acc,1778673192.0,191.0,-1.6707489597663265,1.9102935948368847,-9.850965299284297,,,,,,,,,,
acc,1778673192.0,191.0,-1.6719305788672938,1.9142679673919645,-9.849870332777778,,,,,,,,,,
acc,1778673192.0,191.0,-1.6727464986451734,1.9196260895921966,-9.851554049214007,,,,,,,,,,
acc,1778673192.0,191.0,-1.6742294423451465,1.924935521792812,-9.85009876178376,,,,,,,,,,
acc,1778673192.0,191.0,-1.6760538721159945,1.9291318120017342,-9.850325042772683,,,,,,,,,,
acc,1778673192.0,191.0,-1.678571655699088,1.9315506281108141,-9.849235894368329,,,,,,,,,,
acc,1778673192.0,191.0,-1.6810665598336723,1.9353318350576552,-9.849115054566777,,,,,,,,,,
acc,1778673192.0,191.0,-1.6835387924285103,1.942912318004247,-9.848320874556673,,,,,,,,,,
acc,1778673192.0,191.0,-1.6863435303752632,1.9518437813660308,-9.849308738469968,,,,,,,,,,
acc,1778673192.0,191.0,-1.688767810407573,1.9631078543155756,-9.848228825365723,,,,,,,,,,
acc,1778673192.0,191.0,-1.6904601280148441,1.973240168993187,-9.851240840627707,,,,,,,,,,
acc,1778673192.0,191.0,-1.6903977345620684,1.9773524699738108,-9.850746810731602,,,,,,,,,,
acc,1778673192.0,191.0,-1.6896259754316274,1.9789781365155648,-9.850967202809226,,,,,,,,,,
acc,1778673192.0,191.0,-1.6881867910890744,1.979559630321947,-9.852995922696117,,,,,,,,,,
acc,1778673192.0,191.0,-1.686760684814002,1.979106439935826,-9.852166476705008,,,,,,,,,,
acc,1778673192.0,191.0,-1.68708687049583,1.9831654332940059,-9.85343887160696,,,,,,,,,,
acc,1778673192.0,191.0,-1.6881200247372863,1.9875425128880109,-9.855054665863696,,,,,,,,,,
acc,1778673192.0,191.0,-1.6894632670726117,1.9929092174297336,-9.85420651179068,,,,,,,,,,
acc,1778673192.0,191.0,-1.6904748266694716,1.9999664867131615,-9.854075997664541,,,,,,,,,,
acc,1778673192.0,191.0,-1.6907672614311988,2.005220292885394,-9.852597792954022,,,,,,,,,,
acc,1778673192.0,191.0,-1.6924414097422709,2.0086870242663295,-9.85173646137734,,,,,,,,,,
acc,1778673192.0,191.0,-1.6937453830532931,2.0117672821095813,-9.8512734220705,,,,,,,,,,
acc,1778673192.0,191.0,-1.6950375069783514,2.0145000818018444,-9.849430228609867,,,,,,,,,,
acc,1778673192.0,191.0,-1.6959984126858612,2.0178824864559677,-9.848597681128528,,,,,,,,,,
acc,1778673192.0,191.0,-1.6979799865829228,2.022299049164393,-9.845713898975978,,,,,,,,,,
acc,1778673192.0,191.0,-1.6992336300798678,2.027349916246624,-9.845270093164466,,,,,,,,,,
acc,1778673192.0,191.0,-1.7001564050367097,2.0334197798333657,-9.845540252928512,,,,,,,,,,
acc,1778673192.0,191.0,-1.7017452328995528,2.0383695912978266,-9.843784651931436,,,,,,,,,,
acc,1778673192.0,191.0,-1.7019352519242457,2.041180119551047,-9.846837051983735,,,,,,,,,,
acc,1778673192.0,191.0,-1.70247851508827,2.0450300116635964,-9.84606357250604,,,,,,,,,,
acc,1778673192.0,191.0,-1.7040462416148623,2.047460548335576,-9.8481368523416,,,,,,,,,,
acc,1778673192.0,191.0,-1.7038603892747228,2.0470647621482074,-9.850510759416936,,,,,,,,,,
acc,1778673192.0,191.0,-1.703676225800501,2.049796276180285,-9.851088258304292,,,,,,,,,,
acc,1778673192.0,191.0,-1.7059430012115862,2.0500891975609257,-9.853115878124658,,,,,,,,,,
acc,1778673192.0,191.0,-1.708544148988874,2.053148198997071,-9.85437964567424,,,,,,,,,,
acc,1778673192.0,191.0,-1.7090273561926668,2.0593031065163205,-9.85495749090578,,,,,,,,,,
acc,1778673192.0,191.0,-1.7095061724257927,2.06820631068404,-9.851305983650729,,,,,,,,,,
acc,1778673192.0,191.0,-1.707886334007122,2.0818916556567375,-9.850207921318018,,,,,,,,,,
acc,1778673192.0,191.0,-1.7059262535039261,2.090589594557474,-9.846635068419875,,,,,,,,,,
acc,1778673192.0,191.0,-1.7039839845231983,2.095729828657388,-9.84309468252988,,,,,,,,,,
acc,1778673192.0,191.0,-1.702059365209154,2.102207723672937,-9.844130037556406,,,,,,,,,,
acc,1778673192.0,191.0,-1.6991228260236984,2.106887420448468,-9.841677318743287,,,,,,,,,,
acc,1778673192.0,191.0,-1.696212971575649,2.1146482958172816,-9.840311782551172,,,,,,,,,,
acc,1778673192.0,191.0,-1.6929745975975146,2.123758512331692,-9.840981960945244,,,,,,,,,,
acc,1778673192.0,191.0,-1.6904400803696038,2.13069163947212,-9.837457451267488,,,,,,,,,,
acc,1778673192.0,191.0,-1.688638536382922,2.1413954006157674,-9.83925396523587,,,,,,,,,,
acc,1778673192.0,191.0,-1.6858239541238509,2.1516469243366325,-9.838265421259242,,,,,,,,,,
acc,1778673192.0,191.0,-1.6826799865834854,2.1576166929807554,-9.835475529800718,,,,,,,,,,
acc,1778673192.0,191.0,-1.6799195504895306,2.164242146157697,-9.836935091982063,,,,,,,,,,
acc,1778673192.0,191.0,-1.674379962640141,2.1683581275728896,-9.836216089537626,,,,,,,,,,
acc,1778673193.0,192.0,-1.6699556173015195,2.174531000983229,-9.83585859163369,,,,,,,,,,
acc,1778673193.0,192.0,-1.6655714766001077,2.184836387787021,-9.834900901886453,,,,,,,,,,
acc,1778673193.0,192.0,-1.6619016134747633,2.1950481281175604,-9.837750056717645,,,,,,,,,,
acc,1778673193.0,192.0,-1.6596494607433836,2.2013334366745174,-9.839153455596927,,,,,,,,,,
acc,1778673193.0,192.0,-1.656388373572825,2.206496726254953,-9.842247939942485,,,,,,,,,,
acc,1778673193.0,192.0,-1.6531569203517325,2.210228734469755,-9.844320389492909,,,,,,,,,,
acc,1778673193.0,192.0,-1.6513392027192626,2.2114775549744885,-9.844599179342438,,,,,,,,,,
acc,1778673193.0,192.0,-1.649183032072592,2.2134249599183637,-9.848709072065063,,,,,,,,,,
acc,1778673193.0,192.0,-1.646372025650487,2.2174489720942545,-9.850012884859586,,,,,,,,,,
acc,1778673193.0,192.0,-1.6425216597235335,2.223885682863056,-9.850239946218906,,,,,,,,,,
acc,1778673193.0,192.0,-1.6387062826033547,2.230938340635062,-9.848406144119163,,,,,,,,,,
acc,1778673193.0,192.0,-1.6356355089846495,2.2354776445862043,-9.846589006032271,,,,,,,,,,
acc,1778673193.0,192.0,-1.6329476107746514,2.2351126538379664,-9.846527713232817,,,,,,,,,,
acc,1778673193.0,192.0,-1.630958567061784,2.2340765506159985,-9.844372673842262,,,,,,,,,,
acc,1778673193.0,192.0,-1.6296975397932096,2.234079262666684,-9.843941055933817,,,,,,,,,,
acc,1778673193.0,192.0,-1.6284479716534888,2.237205653698353,-9.840780121796126,,,,,,,,,,
acc,1778673193.0,192.0,-1.6275647202893948,2.2410135674252594,-9.836583007996566,,,,,,,,,,
acc,1778673193.0,192.0,-1.6273639334339673,2.244076945472629,-9.832388539589084,,,,,,,,,,
acc,1778673193.0,192.0,-1.6275199329337287,2.2446987151988287,-9.831107411822359,,,,,,,,,,
acc,1778673193.0,192.0,-1.628739418350536,2.2442499313116855,-9.826004289575598,,,,,,,,,,
acc,1778673193.0,192.0,-1.6309772221934589,2.2441601964499798,-9.826130052931493,,,,,,,,,,
acc,1778673193.0,192.0,-1.6325202525229603,2.242686906098896,-9.823095475476117,,,,,,,,,,
acc,1778673193.0,192.0,-1.6333393284816926,2.2436407747207343,-9.819768997140928,,,,,,,,,,
acc,1778673193.0,192.0,-1.6351803705291164,2.246005840688988,-9.819596450594245,,,,,,,,,,
acc,1778673193.0,192.0,-1.636330244492708,2.2500887476750475,-9.815591835740578,,,,,,,,,,
acc,1778673193.0,192.0,-1.6360498041112348,2.2555189236434035,-9.815812218499222,,,,,,,,,,
acc,1778673193.0,192.0,-1.6350974738497288,2.2588054603787175,-9.811841991485483,,,,,,,,,,
acc,1778673193.0,192.0,-1.6327694266237416,2.2627720554547373,-9.812806382236127,,,,,,,,,,
acc,1778673193.0,192.0,-1.628723201986687,2.2659926819806984,-9.810638305816836,,,,,,,,,,
acc,1778673193.0,192.0,-1.6264530786482485,2.2695390040057095,-9.810158265896588,,,,,,,,,,
acc,1778673193.0,192.0,-1.625232993377485,2.2699293964961296,-9.812167356949772,,,,,,,,,,
acc,1778673193.0,192.0,-1.6226396242698355,2.2671570434592994,-9.813128791058977,,,,,,,,,,
acc,1778673193.0,192.0,-1.6200698214650189,2.2699828521293934,-9.8164952594599,,,,,,,,,,
acc,1778673193.0,192.0,-1.6185527708688778,2.275232247622235,-9.816671938322223,,,,,,,,,,
acc,1778673193.0,192.0,-1.6163750676411601,2.2852969774450607,-9.814788202480328,,,,,,,,,,
acc,1778673193.0,192.0,-1.6135072208633494,2.294240847623905,-9.81955945685891,,,,,,,,,,
acc,1778673193.0,192.0,-1.6096360345491352,2.302748481844554,-9.820453717936982,,,,,,,,,,
acc,1778673193.0,192.0,-1.6064744645182163,2.3094394642374607,-9.822369252796788,,,,,,,,,,
acc,1778673193.0,192.0,-1.603696585886359,2.3164246156137844,-9.828491482403361,,,,,,,,,,
acc,1778673193.0,192.0,-1.6012989210839779,2.3250856246506704,-9.831718347907893,,,,,,,,,,
acc,1778673193.0,192.0,-1.5982131115531244,2.3360817008772536,-9.839778926747352,,,,,,,,,,
acc,1778673193.0,192.0,-1.5958652758381677,2.3431797214387435,-9.841518850771013,,,,,,,,,,
acc,1778673193.0,192.0,-1.5928288425911183,2.3484738995275443,-9.846366667476826,,,,,,,,,,
acc,1778673193.0,192.0,-1.5877256982750911,2.354749368744621,-9.850460498764754,,,,,,,,,,
acc,1778673193.0,192.0,-1.582668926935201,2.356779213881908,-9.851073957816611,,,,,,,,,,
acc,1778673193.0,192.0,-1.578723010675505,2.3622692880099936,-9.855870440306562,,,,,,,,,,
acc,1778673193.0,192.0,-1.5758423515552746,2.370868671047717,-9.859522938636989,,,,,,,,,,
acc,1778673193.0,192.0,-1.5736978020202779,2.3835430139699296,-9.863177749658716,,,,,,,,,,
acc,1778673193.0,192.0,-1.5698334076100677,2.3964571542531696,-9.866763845461449,,,,,,,,,,
acc,1778673193.0,192.0,-1.5652941877591506,2.4085440002374128,-9.868968486447717,,,,,,,,,,
acc,1778673193.0,192.0,-1.5607962164249012,2.422615314940517,-9.869023295642332,,,,,,,,,,
acc,1778673193.0,192.0,-1.5553097187226492,2.4296014218117734,-9.87159786991586,,,,,,,,,,
acc,1778673193.0,192.0,-1.5481337448897075,2.435139674050417,-9.869250508930932,,,,,,,,,,
acc,1778673193.0,192.0,-1.5403130474822566,2.4475849483680134,-9.869693220571117,,,,,,,,,,
acc,1778673193.0,192.0,-1.5350126831598412,2.4578228272080445,-9.868392567451046,,,,,,,,,,
acc,1778673193.0,192.0,-1.5290505513408132,2.4662283312532085,-9.86639380999437,,,,,,,,,,
acc,1778673193.0,192.0,-1.523142598235599,2.474202491548905,-9.859869646639751,,,,,,,,,,
acc,1778673193.0,192.0,-1.5159039605992026,2.482104189550652,-9.855463569363094,,,,,,,,,,
acc,1778673193.0,192.0,-1.5062818361324652,2.488194751042615,-9.852162434218272,,,,,,,,,,
acc,1778673193.0,192.0,-1.498486491014925,2.492845595847397,-9.845803087697881,,,,,,,,,,
acc,1778673193.0,192.0,-1.492181848548335,2.495714845093913,-9.844364565731896,,,,,,,,,,
acc,1778673193.0,192.0,-1.4859344972369508,2.496463717524424,-9.841199783123097,,,,,,,,,,
acc,1778673193.0,192.0,-1.4783240511931526,2.500684459315195,-9.83806375933013,,,,,,,,,,
acc,1778673193.0,192.0,-1.4718476567342085,2.5069611411085484,-9.83634060393243,,,,,,,,,,
acc,1778673193.0,192.0,-1.4664595142168482,2.5117964149145884,-9.835378534082807,,,,,,,,,,
acc,1778673193.0,192.0,-1.462185237992786,2.5165877499210443,-9.835383618026666,,,,,,,,,,
acc,1778673193.0,192.0,-1.4579498027059412,2.517501918251873,-9.834678714047646,,,,,,,,,,
acc,1778673193.0,192.0,-1.454072322818303,2.520147112098393,-9.835790546124855,,,,,,,,,,
acc,1778673193.0,192.0,-1.4512949816241223,2.521028936014646,-9.835117447781474,,,,,,,,,,
acc,1778673193.0,192.0,-1.4488978402871524,2.522612670225361,-9.838248607855636,,,,,,,,,,
acc,1778673193.0,192.0,-1.446841949518787,2.524182012825014,-9.83513940180095,,,,,,,,,,
acc,1778673193.0,192.0,-1.4462246061871211,2.5285058364198836,-9.838305856735492,,,,,,,,,,
acc,1778673193.0,192.0,-1.443873540050755,2.532435407058918,-9.838639301470044,,,,,,,,,,
acc,1778673193.0,192.0,-1.4398045056878939,2.5324956238217986,-9.837904812647484,,,,,,,,,,
acc,1778673193.0,192.0,-1.436091914615875,2.5332652351105978,-9.83792243431008,,,,,,,,,,
acc,1778673193.0,192.0,-1.4320935929558483,2.53576718552381,-9.837584924980256,,,,,,,,,,
acc,1778673193.0,192.0,-1.4291610046472312,2.536862029455441,-9.839699747969073,,,,,,,,,,
acc,1778673193.0,192.0,-1.427284465224104,2.532018984601516,-9.837997220479174,,,,,,,,,,
acc,1778673193.0,192.0,-1.425424978173332,2.5300241853500136,-9.839433867692287,,,,,,,,,,
acc,1778673193.0,192.0,-1.4229079593482745,2.530106313216679,-9.840147527257624,,,,,,,,,,
acc,1778673193.0,192.0,-1.419348909521816,2.5319270365509157,-9.84081919825296,,,,,,,,,,
acc,1778673193.0,192.0,-1.4155027338569788,2.5334117382195345,-9.843650067037983,,,,,,,,,,
acc,1778673193.0,192.0,-1.4109815762840205,2.5348829481994857,-9.844680375193605,,,,,,,,,,
acc,1778673193.0,192.0,-1.4065015030929762,2.539109530917061,-9.846020797298758,,,,,,,,,,
acc,1778673193.0,192.0,-1.402417102718998,2.5422683060441287,-9.849443333265368,,,,,,,,,,
acc,1778673193.0,192.0,-1.3983698178540647,2.543978511673733,-9.850420997212606,,,,,,,,,,
acc,1778673193.0,192.0,-1.3932944168136112,2.549861774439444,-9.850324882582017,,,,,,,,,,
acc,1778673193.0,192.0,-1.3882651366418066,2.5605546114719666,-9.85090407054737,,,,,,,,,,
acc,1778673193.0,192.0,-1.3812227490434803,2.5718602229442222,-9.850413100941179,,,,,,,,,,
acc,1778673193.0,192.0,-1.3752737566422961,2.5816787278548943,-9.850636525479588,,,,,,,,,,
acc,1778673193.0,192.0,-1.36937882355481,2.5893137071102212,-9.849509043176278,,,,,,,,,,
acc,1778673193.0,192.0,-1.36282753498766,2.596524335395397,-9.850131148233716,,,,,,,,,,
acc,1778673193.0,192.0,-1.3553063697448586,2.6019301070213,-9.847978858312722,,,,,,,,,,
acc,1778673193.0,192.0,-1.3474985885925506,2.609381059203508,-9.846875526597202,,,,,,,,,,
acc,1778673193.0,192.0,-1.3418560522841092,2.622337272476984,-9.844007393962706,,,,,,,,,,
acc,1778673193.0,192.0,-1.336264790480583,2.63727005440295,-9.840135924394364,,,,,,,,,,
acc,1778673193.0,192.0,-1.3286300427829811,2.651002245671749,-9.838748900725433,,,,,,,,,,
acc,1778673193.0,192.0,-1.3207097022281806,2.6597466052554783,-9.83701951935734,,,,,,,,,,
acc,1778673193.0,192.0,-1.3121868966235009,2.6649328382669135,-9.83704518580198,,,,,,,,,,
acc,1778673193.0,192.0,-1.3054808807006715,2.6669482396669615,-9.837035124652095,,,,,,,,,,
acc,1778673193.0,192.0,-1.2974159379970096,2.666851023289558,-9.83738011670357,,,,,,,,,,
acc,1778673193.0,192.0,-1.2870105115774593,2.6677840903807755,-9.838786877261885,,,,,,,,,,
acc,1778673193.0,192.0,-1.2759897080657605,2.6655849749657596,-9.837767074344713,,,,,,,,,,
acc,1778673193.0,192.0,-1.265424013888268,2.661666510529941,-9.83846037684273,,,,,,,,,,
acc,1778673193.0,192.0,-1.255983731679359,2.6602329190414524,-9.839182882652562,,,,,,,,,,
acc,1778673193.0,192.0,-1.2463097672013006,2.6588123547963356,-9.840573261228155,,,,,,,,,,
acc,1778673193.0,192.0,-1.2363687495970768,2.6608833738720836,-9.839537225194004,,,,,,,,,,
acc,1778673193.0,192.0,-1.2271924965778518,2.6670886769582776,-9.836380814942553,,,,,,,,,,
acc,1778673193.0,192.0,-1.2174252002456745,2.6784910931031876,-9.832223678289083,,,,,,,,,,
acc,1778673193.0,192.0,-1.2084210898692895,2.6950079010642454,-9.827429888920763,,,,,,,,,,
acc,1778673193.0,192.0,-1.1991793336702328,2.7082154205598132,-9.82473846147614,,,,,,,,,,
acc,1778673193.0,192.0,-1.187572293262543,2.7136711434034444,-9.822781424038938,,,,,,,,,,
acc,1778673193.0,192.0,-1.1771001276796877,2.71662801493446,-9.823255941430928,,,,,,,,,,
acc,1778673193.0,192.0,-1.1681429893789794,2.717818684281611,-9.821312375857708,,,,,,,,,,
acc,1778673193.0,192.0,-1.1585573131926565,2.7207378665372066,-9.8204868695892,,,,,,,,,,
acc,1778673193.0,192.0,-1.1476743815428814,2.7260797961887264,-9.820982237913459,,,,,,,,,,
acc,1778673193.0,192.0,-1.1379197446417133,2.7310182121283457,-9.817320001112746,,,,,,,,,,
acc,1778673193.0,192.0,-1.1296381112933616,2.7331075249079637,-9.820648383388152,,,,,,,,,,
acc,1778673193.0,192.0,-1.121431734288156,2.733438510042779,-9.818409045640255,,,,,,,,,,
acc,1778673193.0,192.0,-1.1129804623472586,2.731352716510267,-9.820733625928495,,,,,,,,,,
acc,1778673193.0,192.0,-1.103896055643537,2.7299603151461675,-9.823037082435418,,,,,,,,,,
acc,1778673193.0,192.0,-1.0945392384209833,2.730319899409524,-9.822799343989011,,,,,,,,,,
acc,1778673193.0,192.0,-1.0863323422947202,2.728936883396754,-9.82472905817011,,,,,,,,,,
acc,1778673193.0,192.0,-1.078519490778169,2.728950805951346,-9.82447594450718,,,,,,,,,,
acc,1778673193.0,192.0,-1.0693932738964855,2.730029496398894,-9.823870160061839,,,,,,,,,,
acc,1778673193.0,192.0,-1.0610599208399263,2.73003349022865,-9.822630945635174,,,,,,,,,,
acc,1778673193.0,192.0,-1.0541866650207832,2.730392409539901,-9.822787363030926,,,,,,,,,,
acc,1778673193.0,192.0,-1.048405267473173,2.726594963658545,-9.824717186084365,,,,,,,,,,
acc,1778673194.0,193.0,-1.0426764062814986,2.7256007675113048,-9.825174112939802,,,,,,,,,,
acc,1778673194.0,193.0,-1.0359702039916387,2.7274198328544372,-9.829141056453157,,,,,,,,,,
acc,1778673194.0,193.0,-1.0289699710247187,2.731281177285324,-9.829238315575264,,,,,,,,,,
acc,1778673194.0,193.0,-1.0223883210001432,2.7361723275563787,-9.826565949070275,,,,,,,,,,
acc,1778673194.0,193.0,-1.0158664793359824,2.7458820766361067,-9.824272837588902,,,,,,,,,,
acc,1778673194.0,193.0,-1.0090489316843727,2.7575978863461894,-9.82129063129248,,,,,,,,,,
acc,1778673194.0,193.0,-1.0026483068884415,2.7681778328306814,-9.819045457350422,,,,,,,,,,
acc,1778673194.0,193.0,-0.9976902072744769,2.7762123725653587,-9.819198962212038,,,,,,,,,,
acc,1778673194.0,193.0,-0.9931321334557077,2.782434568646962,-9.81839266082492,,,,,,,,,,
acc,1778673194.0,193.0,-0.9886154794816026,2.788955184549544,-9.818232621237408,,,,,,,,,,
acc,1778673194.0,193.0,-0.9841398689643247,2.794351643221326,-9.820168339496348,,,,,,,,,,
acc,1778673194.0,193.0,-0.9797049289363254,2.795190998113782,-9.821057067568061,,,,,,,,,,
acc,1778673194.0,193.0,-0.9756652515931182,2.794602860403018,-9.8247064523777,,,,,,,,,,
acc,1778673194.0,193.0,-0.973401616037936,2.796114370725183,-9.827648245537144,,,,,,,,,,
acc,1778673194.0,193.0,-0.9725429213605288,2.795517842200352,-9.831592706265626,,,,,,,,,,
acc,1778673194.0,193.0,-0.9699526970764564,2.7956366670471975,-9.836885684958645,,,,,,,,,,
acc,1778673194.0,193.0,-0.964617268698004,2.801682351888554,-9.836557596713899,,,,,,,,,,
acc,1778673194.0,193.0,-0.9586204005445191,2.8139205059450023,-9.836906928127043,,,,,,,,,,
acc,1778673194.0,193.0,-0.9537074268065973,2.8281417446669903,-9.835194285020282,,,,,,,,,,
acc,1778673194.0,193.0,-0.9495490305725103,2.8370157549837915,-9.83317772843635,,,,,,,,,,
acc,1778673194.0,193.0,-0.9464933166663244,2.8437148224022617,-9.833948238398891,,,,,,,,,,
acc,1778673194.0,193.0,-0.942400476044796,2.851417908880862,-9.83609610845362,,,,,,,,,,
acc,1778673194.0,193.0,-0.9376348949950462,2.8569567018945583,-9.839573337066822,,,,,,,,,,
acc,1778673194.0,193.0,-0.9346874464798822,2.862090192272299,-9.839575796618172,,,,,,,,,,
acc,1778673194.0,193.0,-0.9324412201100934,2.8685614048252974,-9.841353060862376,,,,,,,,,,
acc,1778673194.0,193.0,-0.9295409672340036,2.8760387069869116,-9.840948882597633,,,,,,,,,,
acc,1778673194.0,193.0,-0.9259571367206232,2.8823831674654383,-9.838880033193224,,,,,,,,,,
acc,1778673194.0,193.0,-0.9213409785603546,2.883451967821278,-9.841693029070994,,,,,,,,,,
acc,1778673194.0,193.0,-0.9185415951081333,2.883481655792633,-9.843451053732188,,,,,,,,,,
acc,1778673194.0,193.0,-0.9164420883136033,2.883156103124422,-9.845193102981138,,,,,,,,,,
acc,1778673194.0,193.0,-0.9126223273434835,2.8842178797074265,-9.847593760263281,,,,,,,,,,
acc,1778673194.0,193.0,-0.9081273444328253,2.8863349112758443,-9.847487842764505,,,,,,,,,,
acc,1778673194.0,193.0,-0.906122473368558,2.889462105135176,-9.848128314747163,,,,,,,,,,
acc,1778673194.0,193.0,-0.9031064207954411,2.888372274665586,-9.849472899307278,,,,,,,,,,
acc,1778673194.0,193.0,-0.8986979102383392,2.8834587114089083,-9.846936125768538,,,,,,,,,,
acc,1778673194.0,193.0,-0.894684422197594,2.8820684728312314,-9.847581611279494,,,,,,,,,,
acc,1778673194.0,193.0,-0.8896780052271657,2.8845245037695633,-9.849960563857568,,,,,,,,,,
acc,1778673194.0,193.0,-0.8833327113481741,2.8886975490993123,-9.85093352765676,,,,,,,,,,
acc,1778673194.0,193.0,-0.8784294489377513,2.897376242252366,-9.85079726123173,,,,,,,,,,
acc,1778673194.0,193.0,-0.8753100758309947,2.900048131155345,-9.852792021894896,,,,,,,,,,
acc,1778673194.0,193.0,-0.871509116262794,2.8995720366440008,-9.852283896215948,,,,,,,,,,
acc,1778673194.0,193.0,-0.867068258263151,2.8991002684690557,-9.853235747573976,,,,,,,,,,
acc,1778673194.0,193.0,-0.8629872314526836,2.8989877581773102,-9.854178949327611,,,,,,,,,,
acc,1778673194.0,193.0,-0.858943289494938,2.90129004123933,-9.85330324958728,,,,,,,,,,
acc,1778673194.0,193.0,-0.8549360953947485,2.903571403138064,-9.852435507451101,,,,,,,,,,
acc,1778673194.0,193.0,-0.8506458387184068,2.9037732248034804,-9.85132718100052,,,,,,,,,,
acc,1778673194.0,193.0,-0.8460396064217313,2.903973212487626,-9.850477395671758,,,,,,,,,,
acc,1778673194.0,193.0,-0.8418301933660199,2.9044908593569967,-9.85034527418091,,,,,,,,,,
acc,1778673194.0,193.0,-0.8365941374184216,2.9060686967060647,-9.84953991502174,,,,,,,,,,
acc,1778673194.0,193.0,-0.8317606330931772,2.9104009287605517,-9.847002532502454,,,,,,,,,,
acc,1778673194.0,193.0,-0.826261109765897,2.9146937932256747,-9.847256949345434,,,,,,,,,,
acc,1778673194.0,193.0,-0.8218764648597467,2.9161789151094726,-9.846444150772323,,,,,,,,,,
acc,1778673194.0,193.0,-0.8192709965082863,2.9211292159383553,-9.844289870749977,,,,,,,,,,
acc,1778673194.0,193.0,-0.8166892044065884,2.931607501610094,-9.846734230187034,,,,,,,,,,
acc,1778673194.0,193.0,-0.8130659789972817,2.9360626298877475,-9.843192943264281,,,,,,,,,,
acc,1778673194.0,193.0,-0.8101856109706876,2.939447873753054,-9.843127016595686,,,,,,,,,,
acc,1778673194.0,193.0,-0.8087157881538972,2.942092422806723,-9.841357850689286,,,,,,,,,,
acc,1778673194.0,193.0,-0.8065848835450383,2.9401693716188944,-9.840350188431458,,,,,,,,,,
acc,1778673194.0,193.0,-0.803053477491107,2.93826379546207,-9.84034558862747,,,,,,,,,,
acc,1778673194.0,193.0,-0.8002640944447291,2.935701097263806,-9.837181832671398,,,,,,,,,,
acc,1778673194.0,193.0,-0.7975000589062721,2.9331616866570265,-9.835857147603697,,,,,,,,,,
acc,1778673194.0,193.0,-0.793731731404277,2.9323846847065567,-9.833444102276625,,,,,,,,,,
acc,1778673194.0,193.0,-0.7892877236660907,2.93406401788367,-9.828674717115081,,,,,,,,,,
acc,1778673194.0,193.0,-0.7834997283295405,2.9392067560936037,-9.828421243066147,,,,,,,,,,
acc,1778673194.0,193.0,-0.7777643293037819,2.9435928288987925,-9.824016968731742,,,,,,,,,,
acc,1778673194.0,193.0,-0.7724360104124881,2.9465546739475945,-9.823131382009437,,,,,,,,,,
acc,1778673194.0,193.0,-0.7671561106888152,2.9473953007594784,-9.822253842735648,,,,,,,,,,
acc,1778673194.0,193.0,-0.7608592957332123,2.9478733269061563,-9.821029316008513,,,,,,,,,,
acc,1778673194.0,193.0,-0.7542647299416284,2.9528905780229877,-9.822229687681052,,,,,,,,,,
acc,1778673194.0,193.0,-0.7498243934206245,2.9578622366879106,-9.817881676863301,,,,,,,,,,
acc,1778673194.0,193.0,-0.7464893012570195,2.961723813710798,-9.817087345830256,,,,,,,,,,
acc,1778673194.0,193.0,-0.7438589538095992,2.9613971964126007,-9.814489902503473,,,,,,,,,,
acc,1778673194.0,193.0,-0.7423174121867037,2.9586242818142634,-9.812271024275512,,,,,,,,,,
acc,1778673194.0,193.0,-0.7428841823077678,2.956905965120711,-9.812521583703239,,,,,,,,,,
acc,1778673194.0,193.0,-0.7430908312499745,2.9569426047769456,-9.811385495354308,,,,,,,,,,
acc,1778673194.0,193.0,-0.7404913661676157,2.9580438058914202,-9.8123185308925,,,,,,,,,,
acc,1778673194.0,193.0,-0.7379155227824725,2.958425067605435,-9.807350651487386,,,,,,,,,,
acc,1778673194.0,193.0,-0.7346886481665931,2.957418493833145,-9.809420750062351,,,,,,,,,,
acc,1778673194.0,193.0,-0.7297517639226172,2.9553561725275332,-9.803804764916453,,,,,,,,,,
acc,1778673194.0,193.0,-0.7258891509607216,2.951928220911076,-9.801008554818202,,,,,,,,,,
acc,1778673194.0,193.0,-0.7206772671862143,2.9516906175137034,-9.803100790539055,,,,,,,,,,
acc,1778673194.0,193.0,-0.7155127445173701,2.952129611525445,-9.796086876107404,,,,,,,,,,
acc,1778673194.0,193.0,-0.7121344852594074,2.9515352162902753,-9.798259330160409,,,,,,,,,,
acc,1778673194.0,193.0,-0.707047592026491,2.9446633117781102,-9.79760780664721,,,,,,,,,,
acc,1778673194.0,193.0,-0.7002675914108811,2.9371794240215046,-9.796287774430738,,,,,,,,,,
acc,1778673194.0,193.0,-0.6952885342767118,2.939134654155487,-9.800126746855199,,,,,,,,,,
acc,1778673194.0,193.0,-0.6934784261110485,2.941427078617504,-9.800097197783701,,,,,,,,,,
acc,1778673194.0,193.0,-0.6909748340133592,2.9430242423155564,-9.802588180351957,,,,,,,,,,
acc,1778673194.0,193.0,-0.6881745159011136,2.9452813215542717,-9.803636661750113,,,,,,,,,,
acc,1778673194.0,193.0,-0.6846897211181463,2.950996564854311,-9.806414948135444,,,,,,,,,,
acc,1778673194.0,193.0,-0.6805266514239605,2.957724767359108,-9.804659913350736,,,,,,,,,,
acc,1778673194.0,193.0,-0.6774663156123153,2.965066268035397,-9.802920826808826,,,,,,,,,,
acc,1778673194.0,193.0,-0.6723394859509846,2.970601722801935,-9.799777678317428,,,,,,,,,,
acc,1778673194.0,193.0,-0.6655199118148623,2.9733181343117034,-9.797337530323528,,,,,,,,,,
acc,1778673194.0,193.0,-0.6608566116307878,2.973915557873308,-9.79349969102212,,,,,,,,,,
acc,1778673194.0,193.0,-0.6569101166848571,2.975536961699662,-9.793565857279567,,,,,,,,,,
acc,1778673194.0,193.0,-0.6540643875768738,2.9809772678307667,-9.791927583953065,,,,,,,,,,
acc,1778673194.0,193.0,-0.6529838506831868,2.987752498972117,-9.793392407072401,,,,,,,,,,
acc,1778673194.0,193.0,-0.650528761868625,2.995176104376308,-9.793814519094534,,,,,,,,,,
acc,1778673194.0,193.0,-0.6480959827842407,3.00324217400284,-9.795262195374363,,,,,,,,,,
acc,1778673194.0,193.0,-0.6477796142410492,3.008785680827676,-9.797406649054638,,,,,,,,,,
acc,1778673194.0,193.0,-0.64814055885663,3.012539480360592,-9.79921214837539,,,,,,,,,,
acc,1778673194.0,193.0,-0.6481432617452626,3.0179985012821073,-9.801675670062265,,,,,,,,,,
acc,1778673194.0,193.0,-0.6474715017981301,3.023762886189337,-9.803442376201186,,,,,,,,,,
acc,1778673194.0,193.0,-0.6471608079996665,3.0308592602454425,-9.805867457225213,,,,,,,,,,
acc,1778673194.0,193.0,-0.6475273757927771,3.0365067776647776,-9.80898044292529,,,,,,,,,,
acc,1778673194.0,193.0,-0.6472161742596317,3.043842307997447,-9.810290304366617,,,,,,,,,,
acc,1778673194.0,193.0,-0.6465528388841676,3.050046275860922,-9.808109588465696,,,,,,,,,,
acc,1778673194.0,193.0,-0.6424168568776919,3.0495914984599426,-9.807688030799527,,,,,,,,,,
acc,1778673194.0,193.0,-0.6372535647016617,3.044632779185192,-9.803756135075094,,,,,,,,,,
acc,1778673194.0,193.0,-0.634231495615251,3.0428428240656644,-9.799611490334877,,,,,,,,,,
acc,1778673194.0,193.0,-0.633331182942208,3.0441928381050656,-9.799586623470343,,,,,,,,,,
acc,1778673194.0,193.0,-0.6310546806260517,3.049364220605342,-9.799916953435073,,,,,,,,,,
acc,1778673194.0,193.0,-0.6298282743348215,3.0572928462172766,-9.799889310785279,,,,,,,,,,
acc,1778673194.0,193.0,-0.6296779069741003,3.0647944524557036,-9.801281784596329,,,,,,,,,,
acc,1778673194.0,193.0,-0.6291739442487952,3.0701335961097693,-9.805110870122073,,,,,,,,,,
acc,1778673194.0,193.0,-0.6307688646446614,3.076808593138489,-9.804432589168826,,,,,,,,,,
acc,1778673194.0,193.0,-0.6323492917792378,3.082712991828658,-9.807842586766057,,,,,,,,,,
acc,1778673194.0,193.0,-0.6321760155858146,3.0857950037052384,-9.810618147691134,,,,,,,,,,
acc,1778673194.0,193.0,-0.6337436557459905,3.0892039797760744,-9.808824917853418,,,,,,,,,,
acc,1778673194.0,193.0,-0.6359714797312016,3.091517074517114,-9.811556057840681,,,,,,,,,,
acc,1778673194.0,193.0,-0.6367946882647189,3.091040408031033,-9.813942912169177,,,,,,,,,,
acc,1778673194.0,193.0,-0.6372554544154282,3.089538673031266,-9.817301982511443,,,,,,,,,,
acc,1778673194.0,193.0,-0.6384219661547887,3.089789926273206,-9.818926690197014,,,,,,,,,,
acc,1778673194.0,193.0,-0.6399328485019498,3.088973992847589,-9.822950404896089,,,,,,,,,,
acc,1778673194.0,193.0,-0.6410750303925178,3.085041770331273,-9.823813851955443,,,,,,,,,,
acc,1778673194.0,193.0,-0.639757567803039,3.084268984052605,-9.824278987531908,,,,,,,,,,
acc,1778673194.0,193.0,-0.6377421445434395,3.087691827274105,-9.827544132533857,,,,,,,,,,
acc,1778673194.0,193.0,-0.6378393392549702,3.0934973285166953,-9.828010864896903,,,,,,,,,,
acc,1778673195.0,194.0,-0.6400299452000362,3.0989306069564013,-9.830212688680469,,,,,,,,,,
acc,1778673195.0,194.0,-0.6422006448071912,3.101155314496672,-9.831684580641111,,,,,,,,,,
acc,1778673195.0,194.0,-0.6408729536045276,3.105099138494911,-9.833888524310826,,,,,,,,,,
acc,1778673195.0,194.0,-0.6392023564540507,3.1114563988243455,-9.833232709904479,,,,,,,,,,
acc,1778673195.0,194.0,-0.6389668055181544,3.1174009189930323,-9.83329278760806,,,,,,,,,,
acc,1778673195.0,194.0,-0.6394078333402311,3.1257406858041317,-9.831612986695518,,,,,,,,,,
acc,1778673195.0,194.0,-0.6391704152075738,3.1329752679580194,-9.831687783046961,,,,,,,,,,
acc,1778673195.0,194.0,-0.6382252218920889,3.13804980492517,-9.831761899713658,,,,,,,,,,
acc,1778673195.0,194.0,-0.6376435885390486,3.1388896308784546,-9.831089906790845,,,,,,,,,,
acc,1778673195.0,194.0,-0.6380966406160391,3.139366854357027,-9.832234350848989,,,,,,,,,,
acc,1778673195.0,194.0,-0.6378711374722412,3.1415790739218656,-9.831309595091069,,,,,,,,,,
acc,1778673195.0,194.0,-0.6369377508724773,3.144481132464083,-9.830641712322656,,,,,,,,,,
acc,1778673195.0,194.0,-0.6367227787193782,3.1473568196006605,-9.830370363917472,,,,,,,,,,
acc,1778673195.0,194.0,-0.6378941309560937,3.151590736793309,-9.832550746608431,,,,,,,,,,
acc,1778673195.0,194.0,-0.6383449063196321,3.151952543573279,-9.832971983179874,,,,,,,,,,
acc,1778673195.0,194.0,-0.6381171471511978,3.1488323972017684,-9.831295097461386,,,,,,,,,,
acc,1778673195.0,194.0,-0.6375364958882211,3.1478348984852276,-9.83172774428955,,,,,,,,,,
acc,1778673195.0,194.0,-0.6373160828567092,3.146136540629954,-9.832475927009956,,,,,,,,,,
acc,1778673195.0,194.0,-0.6370976727487694,3.1476128139362776,-9.83392725261216,,,,,,,,,,
acc,1778673195.0,194.0,-0.6375556856377187,3.1473363394620484,-9.834300486324056,,,,,,,,,,
acc,1778673195.0,194.0,-0.6369801364528416,3.1470623773494424,-9.835415755403808,,,,,,,,,,
acc,1778673195.0,194.0,-0.6364098173626709,3.15200890281339,-9.834710559391162,,,,,,,,,,
acc,1778673195.0,194.0,-0.6354897099800093,3.1544612132034477,-9.832698398490546,,,,,,,,,,
acc,1778673195.0,194.0,-0.6342230019663812,3.156891239111264,-9.832053398921452,,,,,,,,,,
acc,1778673195.0,194.0,-0.6326128338423159,3.1575598503573046,-9.832124193186345,,,,,,,,,,
acc,1778673195.0,194.0,-0.6303428592635903,3.1589323184749443,-9.831448908052874,,,,,,,,,,
acc,1778673195.0,194.0,-0.629477883164699,3.1620316474674737,-9.829430891867245,,,,,,,,,,
acc,1778673195.0,194.0,-0.6300051381309603,3.166487183338835,-9.831974782530654,,,,,,,,,,
acc,1778673195.0,194.0,-0.6298531635845817,3.1698373276474565,-9.827822189749027,,,,,,,,,,
acc,1778673195.0,194.0,-0.6310869409600508,3.173157028733372,-9.827540968373851,,,,,,,,,,
acc,1778673195.0,194.0,-0.6326644776911982,3.1788958376412197,-9.826907331635441,,,,,,,,,,
acc,1778673195.0,194.0,-0.6352570791764249,3.1845824972021872,-9.822197347010814,,,,,,,,,,
acc,1778673195.0,194.0,-0.638536053968973,3.1891880721698262,-9.825445913806716,,,,,,,,,,
acc,1778673195.0,194.0,-0.6410752996319462,3.1905925976936707,-9.823837418517131,,,,,,,,,,
acc,1778673195.0,194.0,-0.6422070999116765,3.1902450274189844,-9.82359240730691,,,,,,,,,,
acc,1778673195.0,194.0,-0.6429736445057969,3.189581148149708,-9.826544323944141,,,,,,,,,,
acc,1778673195.0,194.0,-0.6444431651248219,3.190307663463843,-9.823896438115636,,,,,,,,,,
acc,1778673195.0,194.0,-0.6448344285129459,3.1945062512837237,-9.826490621122433,,,,,,,,,,
acc,1778673195.0,194.0,-0.6455770982102386,3.200051056866065,-9.824908126793527,,,,,,,,,,
acc,1778673195.0,194.0,-0.6459580573922538,3.2034511724942107,-9.825043851130262,,,,,,,,,,
acc,1778673195.0,194.0,-0.6470454873797737,3.207530323437446,-9.827272636576371,,,,,,,,,,
