sensor,time,t,ax,ay,az,wx,wy,wz,lat,lon,alt,v_kmh,satellites,x,y
acc,1778675410.0,155.0,0.078125,0.320312,-9.835938,,,,,,,,,,
acc,1778675410.0,155.0,0.078125,0.3313003591084626,-9.835938,,,,,,,,,,
acc,1778675410.0,155.0,0.078125,0.3370566833390332,-9.827564542349553,,,,,,,,,,
acc,1778675410.0,155.0,0.078125,0.3338347894566352,-9.822411042011698,,,,,,,,,,
acc,1778675410.0,155.0,0.078125,0.3316519007357907,-9.818919456574378,,,,,,,,,,
acc,1778675410.0,155.0,0.078125,0.33007509881999403,-9.816397322232778,,,,,,,,,,
acc,1778675410.0,155.0,0.078125,0.32888264494631414,-9.81878399856654,,,,,,,,,,
acc,1778675410.0,155.0,0.08237938560390008,0.32794920848532194,-9.816823276196816,,,,,,,,,,
acc,1778675410.0,155.0,0.0858004471532965,0.3271986080736955,-9.815246608604214,,,,,,,,,,
acc,1778675410.0,155.0,0.08861139545937326,0.32658186998666106,-9.813951124429293,,,,,,,,,,
acc,1778675410.0,155.0,0.09096225740479028,0.32285263168913253,-9.812546352527896,,,,,,,,,,
acc,1778675410.0,155.0,0.0929575971191499,0.32265933217471526,-9.808381985134211,,,,,,,,,,
acc,1778675410.0,155.0,0.09467252398559921,0.3249814636353245,-9.807844019105241,,,,,,,,,,
acc,1778675410.0,155.0,0.0961623816994151,0.3269988356508707,-9.807376656412574,,,,,,,,,,
acc,1778675410.0,155.0,0.09746884878742272,0.3287678838748304,-9.809151370233247,,,,,,,,,,
acc,1778675410.0,155.0,0.09862391103983714,0.3303319193143399,-9.806144132853712,,,,,,,,,,
acc,1778675410.0,155.0,0.10181690166909783,0.32977672792353163,-9.807794974344505,,,,,,,,,,
acc,1778675410.0,155.0,0.10467870142701038,0.3292791233977776,-9.809274583377931,,,,,,,,,,
acc,1778675410.0,155.0,0.10725849412507953,0.32883055374557985,-9.8088497020004,,,,,,,,,,
acc,1778675410.0,155.0,0.10773229258555717,0.33010163963684647,-9.808464694062039,,,,,,,,,,
acc,1778675410.0,155.0,0.10816365234848421,0.33125887283714844,-9.809717998359305,,,,,,,,,,
acc,1778675410.0,155.0,0.10855806057646754,0.3323169740675401,-9.810863940956397,,,,,,,,,,
acc,1778675410.0,155.0,0.10892009743797243,0.33181335023884806,-9.81044094884493,,,,,,,,,,
acc,1778675410.0,155.0,0.11082933670111343,0.3313493976789127,-9.811469473488431,,,,,,,,,,
acc,1778675410.0,155.0,0.11259401205176534,0.3309205747114639,-9.81105420686018,,,,,,,,,,
acc,1778675410.0,155.0,0.11423006460173452,0.33052300758438824,-9.810669207984427,,,,,,,,,,
acc,1778675410.0,155.0,0.11575117419158004,0.3287393388650823,-9.810169861618219,,,,,,,,,,
acc,1778675410.0,155.0,0.11716914659538455,0.32844427515126684,-9.80984113241652,,,,,,,,,,
acc,1778675410.0,155.0,0.11849422379746397,0.3268441039005484,-9.809401502138071,,,,,,,,,,
acc,1778675410.0,155.0,0.11845128550750439,0.32662938007460646,-9.809118128323323,,,,,,,,,,
acc,1778675410.0,155.0,0.11841098164490166,0.3264278303718483,-9.808852140569606,,,,,,,,,,
acc,1778675410.0,155.0,0.11958383455253611,0.3262382649511255,-9.808601968628142,,,,,,,,,,
acc,1778675410.0,155.0,0.11951161836850961,0.3260596331504249,-9.808366225926662,,,,,,,,,,
acc,1778675410.0,155.0,0.11944344588101594,0.32589100371696206,-9.808143683478802,,,,,,,,,,
acc,1778675410.0,155.0,0.11937898221510945,0.3257315483140511,-9.807933248117905,,,,,,,,,,
acc,1778675410.0,155.0,0.1193179285098403,0.32558052768815277,-9.807733944241502,,,,,,,,,,
acc,1778675410.0,155.0,0.12032208637972892,0.32543728000863403,-9.80754489842313,,,,,,,,,,
acc,1778675410.0,155.0,0.12127592224013362,0.3262345801741865,-9.808298695561431,,,,,,,,,,
acc,1778675410.0,155.0,0.12116987714753974,0.3269929524169166,-9.80810367846593,,,,,,,,,,
acc,1778675410.0,155.0,0.12007807328706416,0.3277152278824902,-9.807917943736319,,,,,,,,,,
acc,1778675410.0,155.0,0.12000635283284786,0.3284039692896347,-9.807740832363823,,,,,,,,,,
acc,1778675410.0,155.0,0.11898886426280605,0.329061501998894,-9.807571746376848,,,,,,,,,,
acc,1778675410.0,155.0,0.11801639650093027,0.3296899408639195,-9.80741014193611,,,,,,,,,,
acc,1778675410.0,155.0,0.11708596666094907,0.33029121351844515,-9.807255523346342,,,,,,,,,,
acc,1778675410.0,155.0,0.11619485021188262,0.33086708063899284,-9.807107437845692,,,,,,,,,,
acc,1778675410.0,155.0,0.11621713673220689,0.3306302220885509,-9.807754402600757,,,,,,,,,,
acc,1778675410.0,155.0,0.11623852236210358,0.33040293809697585,-9.808375215029379,,,,,,,,,,
acc,1778675410.0,155.0,0.11625906189950863,0.33018464627816685,-9.809816473052095,,,,,,,,,,
acc,1778675410.0,155.0,0.11627880577379099,0.3299748106746458,-9.809624430930098,,,,,,,,,,
acc,1778675410.0,155.0,0.11629780047240218,0.3297729372231752,-9.809439675791577,,,,,,,,,,
acc,1778675410.0,155.0,0.11631608891848615,0.32957856974156496,-9.809261790137334,,,,,,,,,,
acc,1778675410.0,155.0,0.11554422228727622,0.3293912863680911,-9.809800933608317,,,,,,,,,,
acc,1778675410.0,155.0,0.11479994172718277,0.32921069639507106,-9.81032080840058,,,,,,,,,,
acc,1778675410.0,155.0,0.11484670593904094,0.3290364374466118,-9.810133994859967,,,,,,,,,,
acc,1778675410.0,155.0,0.11489186147497737,0.3288681729576632,-9.809953607653355,,,,,,,,,,
acc,1778675410.0,155.0,0.11493549233469415,0.3287055899175025,-9.810447358951436,,,,,,,,,,
acc,1778675410.0,155.0,0.11497767673997451,0.32920680842831773,-9.810924741359234,,,,,,,,,,
acc,1778675410.0,155.0,0.11501848762276799,0.32904257680174814,-9.810737449732173,,,,,,,,,,
acc,1778675410.0,155.0,0.11505799306462983,0.3295237851766028,-9.811196335739895,,,,,,,,,,
acc,1778675410.0,155.0,0.11509625669307871,0.32998986725527757,-9.811009233749614,,,,,,,,,,
acc,1778675410.0,155.0,0.11444084932033263,0.3304415481811032,-9.811451158062049,,,,,,,,,,
acc,1778675410.0,155.0,0.11380535305874794,0.33087950715399156,-9.811264439434071,,,,,,,,,,
acc,1778675410.0,155.0,0.11386380071592453,0.33130438100957577,-9.811083299491086,,,,,,,,,,
acc,1778675410.0,155.0,0.11392053054781982,0.33171676746898804,-9.810907483401762,,,,,,,,,,
acc,1778675410.0,155.0,0.11397561980554109,0.3315244840571474,-9.810736751750833,,,,,,,,,,
acc,1778675410.0,155.0,0.11402914113619651,0.3313376733341432,-9.81057087939167,,,,,,,,,,
acc,1778675410.0,155.0,0.114724456916446,0.3317350809824161,-9.810409654399784,,,,,,,,,,
acc,1778675410.0,155.0,0.11540059104049027,0.33154908618787743,-9.810252877117058,,,,,,,,,,
acc,1778675410.0,155.0,0.11542937221545777,0.3319342488676162,-9.810100359277687,,,,,,,,,,
acc,1778675410.0,155.0,0.1154573831321996,0.33174913303569026,-9.809951923207754,,,,,,,,,,
acc,1778675410.0,155.0,0.11610022302854628,0.33212292805036436,-9.809807401091328,,,,,,,,,,
acc,1778675410.0,155.0,0.11672635910992264,0.33193873653637085,-9.808996532410488,,,,,,,,,,
acc,1778675410.0,155.0,0.11673348514876895,0.331759262451655,-9.808869714781551,,,,,,,,,,
acc,1778675410.0,155.0,0.11733739547864873,0.3321216060307406,-9.809283385296704,,,,,,,,,,
acc,1778675410.0,155.0,0.11792627073136731,0.3319428879824012,-9.809154716338357,,,,,,,,,,
acc,1778675410.0,155.0,0.11850068734126394,0.3317685579948859,-9.809029206586485,,,,,,,,,,
acc,1778675410.0,155.0,0.1190611922066694,0.33159845008974376,-9.808906736544067,,,,,,,,,,
acc,1778675410.0,155.0,0.1196083045561793,0.3314324066860256,-9.80930441366622,,,,,,,,,,
acc,1778675410.0,155.0,0.12014251767530629,0.33178284525967544,-9.80969271478211,,,,,,,,,,
acc,1778675410.0,155.0,0.12009982246380538,0.3321251296855679,-9.810071980749155,,,,,,,,,,
acc,1778675410.0,155.0,0.12005810786782266,0.3319558954900596,-9.81044253580742,,,,,,,,,,
acc,1778675410.0,155.0,0.12057219907866222,0.3322898896433348,-9.810804688579367,,,,,,,,,,
acc,1778675410.0,155.0,0.12052452701601217,0.33212116118137974,-9.810663488283867,,,,,,,,,,
acc,1778675410.0,155.0,0.12047790902621074,0.33195616345983425,-9.81052541005587,,,,,,,,,,
acc,1778675410.0,155.0,0.12043230914633782,0.33125334920443567,-9.810336208149737,,,,,,,,,,
acc,1778675410.0,155.0,0.12038769306631561,0.3311028826213706,-9.810688286679365,,,,,,,,,,
acc,1778675410.0,155.0,0.12034402803506854,0.33095562342585405,-9.810553085591804,,,,,,,,,,
acc,1778675410.0,155.0,0.12030128277299569,0.3308114661282358,-9.810420732407682,,,,,,,,,,
acc,1778675410.0,155.0,0.12025942739026585,0.3311429652539589,-9.810291134578394,,,,,,,,,,
acc,1778675410.0,155.0,0.12021843331048834,0.330998405283212,-9.810164203622175,,,,,,,,,,
acc,1778675410.0,155.0,0.11966059989636064,0.3308567861879029,-9.810039854903138,,,,,,,,,,
acc,1778675410.0,155.0,0.11911398714864771,0.3307180157219268,-9.809918007424544,,,,,,,,,,
acc,1778675410.0,155.0,0.11908881384268875,0.3305820055633098,-9.809798583635237,,,,,,,,,,
acc,1778675410.0,155.0,0.11906413576657224,0.33044867110765896,-9.809681509248287,,,,,,,,,,
acc,1778675410.0,155.0,0.11853611471083618,0.33031793127449705,-9.809566713070941,,,,,,,,,,
acc,1778675410.0,155.0,0.11851883903314117,0.33018970832555417,-9.810405220629997,,,,,,,,,,
acc,1778675410.0,155.0,0.1180044725009062,0.3300639276941644,-9.810730349597613,,,,,,,,,,
acc,1778675410.0,155.0,0.11749980094891285,0.33038542686316164,-9.811049350408126,,,,,,,,,,
acc,1778675410.0,155.0,0.11749587910671762,0.3302587229815337,-9.810920194771986,,,,,,,,,,
acc,1778675410.0,155.0,0.11749202967603209,0.3301343585156438,-9.810793423819915,,,,,,,,,,
acc,1778675410.0,155.0,0.11748825060408263,0.3304492666990571,-9.810668969949168,,,,,,,,,,
acc,1778675410.0,155.0,0.11748453991775187,0.3307584763429232,-9.810546768180277,,,,,,,,,,
acc,1778675410.0,155.0,0.1174808957197438,0.3306300989272655,-9.81042675603075,,,,,,,,,,
acc,1778675410.0,155.0,0.11747731618496766,0.33050399946099107,-9.81073853383703,,,,,,,,,,
acc,1778675410.0,155.0,0.11747379955712635,0.33038011607345363,-9.811044832443535,,,,,,,,,,
acc,1778675410.0,155.0,0.11747034414549572,0.33025838920400497,-9.811345799112493,,,,,,,,,,
acc,1778675410.0,155.0,0.11746694832188269,0.33056160352172964,-9.811218733632774,,,,,,,,,,
acc,1778675410.0,155.0,0.11746361051775055,0.33085963725903605,-9.811093839135419,,,,,,,,,,
acc,1778675410.0,155.0,0.1174603292215009,0.3311526253870918,-9.810971059059192,,,,,,,,,,
acc,1778675410.0,155.0,0.11745710297590235,0.3314406980226147,-9.810850338877172,,,,,,,,,,
acc,1778675410.0,155.0,0.11745393037565682,0.33172398064517783,-9.811146110856546,,,,,,,,,,
acc,1778675410.0,155.0,0.11745081006509497,0.3320025943029864,-9.81102449118523,,,,,,,,,,
acc,1778675410.0,155.0,0.11790394142733727,0.3322766558078337,-9.811315453244138,,,,,,,,,,
acc,1778675410.0,155.0,0.11834973272880514,0.33254627791989316,-9.811601702146172,,,,,,,,,,
acc,1778675410.0,155.0,0.11878836399719568,0.3324046869172903,-9.811476470883994,,,,,,,,,,
acc,1778675410.0,155.0,0.11922000912591717,0.33226535105377886,-9.811353234197105,,,,,,,,,,
acc,1778675410.0,155.0,0.11964483613500886,0.3321282160921725,-9.811635283214097,,,,,,,,,,
acc,1778675410.0,155.0,0.11961676964896058,0.33239485731279367,-9.81151128569385,,,,,,,,,,
acc,1778675410.0,155.0,0.11958913933887265,0.33265735471255053,-9.811389215195653,,,,,,,,,,
acc,1778675410.0,155.0,0.11956193501382219,0.3329158051086974,-9.811269026696088,,,,,,,,,,
acc,1778675410.0,155.0,0.11997593420079465,0.3331703021597724,-9.811150676640647,,,,,,,,,,
acc,1778675410.0,155.0,0.11994459819906912,0.33302577659006877,-9.811034122883743,,,,,,,,,,
acc,1778675410.0,155.0,0.11991373417269625,0.3328834278298805,-9.810919324631609,,,,,,,,,,
acc,1778675410.0,155.0,0.1203190266263536,0.33274320690417053,-9.810806242387951,,,,,,,,,,
acc,1778675410.0,155.0,0.12071830591128563,0.33260506638256754,-9.81069483790218,,,,,,,,,,
acc,1778675410.0,155.0,0.12111170483159651,0.3324689603182145,-9.810109331022554,,,,,,,,,,
acc,1778675410.0,155.0,0.12106841834480092,0.3323348441894855,-9.810006420458441,,,,,,,,,,
acc,1778675410.0,155.0,0.12102576018977994,0.33220267484441596,-9.80990500370873,,,,,,,,,,
acc,1778675411.0,156.0,0.1209837168640306,0.33207241044769975,-9.809805048672173,,,,,,,,,,
acc,1778675411.0,156.0,0.12094227527368408,0.331944010430117,-9.809706524219024,,,,,,,,,,
acc,1778675411.0,156.0,0.12090142271792612,0.3318174354402636,-9.809609400153994,,,,,,,,,,
acc,1778675411.0,156.0,0.12086114687412142,0.3316926472984611,-9.809894960580463,,,,,,,,,,
acc,1778675411.0,156.0,0.12082143578360513,0.3315696089527344,-9.8101765168403,,,,,,,,,,
acc,1778675411.0,156.0,0.12120325339902117,0.3314482844367488,-9.810075260300136,,,,,,,,,,
acc,1778675411.0,156.0,0.12116011446579049,0.33132863882960684,-9.810353123460988,,,,,,,,,,
acc,1778675411.0,156.0,0.12111756864524299,0.33121063821740954,-9.81062716631029,,,,,,,,,,
acc,1778675411.0,156.0,0.12107560405934524,0.33109424965649287,-9.810522017290335,,,,,,,,,,
acc,1778675411.0,156.0,0.12061826951724415,0.33097944113825506,-9.810418295729727,,,,,,,,,,
acc,1778675411.0,156.0,0.12058184926526053,0.3308661815554955,-9.810315973525261,,,,,,,,,,
acc,1778675411.0,156.0,0.12054591737234222,0.3307544406701904,-9.810215023358973,,,,,,,,,,
acc,1778675411.0,156.0,0.12051046438458989,0.33064418908263377,-9.810115418670259,,,,,,,,,,
acc,1778675411.0,156.0,0.1204754811081722,0.3305353982018785,-9.81038731278135,,,,,,,,,,
acc,1778675411.0,156.0,0.12044095860021801,0.33042804021741257,-9.810655625746115,,,,,,,,,,
acc,1778675411.0,156.0,0.12040688816008688,0.33032208807201224,-9.810552202098092,,,,,,,,,,
acc,1778675411.0,156.0,0.12037326132099979,0.33021751543571537,-9.810450125037848,,,,,,,,,,
acc,1778675411.0,156.0,0.12034006984201295,0.33011429668086134,-9.810715717145047,,,,,,,,,,
acc,1778675411.0,156.0,0.12030730570031845,0.3300124068581478,-9.810612450879848,,,,,,,,,,
acc,1778675411.0,156.0,0.12027496108385638,0.329911821673656,-9.810875055847646,,,,,,,,,,
acc,1778675411.0,156.0,0.12024302838422408,0.3298125174667998,-9.810770639094503,,,,,,,,,,
acc,1778675411.0,156.0,0.12021150018986854,0.32971447118915526,-9.8106675450334,,,,,,,,,,
acc,1778675411.0,156.0,0.12058256393558943,0.32961766038413115,-9.810565750051598,,,,,,,,,,
acc,1778675411.0,156.0,0.12054769151915423,0.32952206316744076,-9.810465231138126,,,,,,,,,,
acc,1778675411.0,156.0,0.1209136472037871,0.3294276582083396,-9.810726332029496,,,,,,,,,,
acc,1778675411.0,156.0,0.12127506177837315,0.3289349048122453,-9.810584662817007,,,,,,,,,,
acc,1778675411.0,156.0,0.12163201384581868,0.32884689997630784,-9.810484607237527,,,,,,,,,,
acc,1778675411.0,156.0,0.12158675387164197,0.32875997645043004,-9.810743836830213,,,,,,,,,,
acc,1778675411.0,156.0,0.1215420473225274,0.32867411579872713,-9.810205866343109,,,,,,,,,,
acc,1778675411.0,156.0,0.12149788483306204,0.32858930003456244,-9.809674442727555,,,,,,,,,,
acc,1778675411.0,156.0,0.12184966924272703,0.3288613945341027,-9.809584417286377,,,,,,,,,,
acc,1778675411.0,156.0,0.12219721231898958,0.32913020849176045,-9.809061365769919,,,,,,,,,,
acc,1778675411.0,156.0,0.1225405842683267,0.32904128991429066,-9.808977870540035,,,,,,,,,,
acc,1778675411.0,156.0,0.12287985363614652,0.32895343372911345,-9.809249211525326,,,,,,,,,,
acc,1778675411.0,156.0,0.12321508735793515,0.3292198069079842,-9.809517324880085,,,,,,,,,,
acc,1778675411.0,156.0,0.12354635080852586,0.3291304822929774,-9.809429719831552,,,,,,,,,,
acc,1778675411.0,156.0,0.12387370784956994,0.3293941256305015,-9.80934314786167,,,,,,,,,,
acc,1778675411.0,156.0,0.12419722087528472,0.3296546731157792,-9.809257592469827,,,,,,,,,,
acc,1778675411.0,156.0,0.12451695085655044,0.330301821579835,-9.809134074754155,,,,,,,,,,
acc,1778675411.0,156.0,0.12444396712607624,0.3305524433403796,-9.809400995694695,,,,,,,,,,
acc,1778675411.0,156.0,0.12437182989796758,0.33080015826248527,-9.809664820750628,,,,,,,,,,
acc,1778675411.0,156.0,0.1243005260192694,0.33104501151261223,-9.809925598025817,,,,,,,,,,
acc,1778675411.0,156.0,0.12423004262852544,0.33128704725623115,-9.810183374558031,,,,,,,,,,
acc,1778675411.0,156.0,0.12416036714727749,0.3315263086870144,-9.810438196350043,,,,,,,,,,
acc,1778675411.0,156.0,0.12409148727186146,0.33141552275607844,-9.8103427931007,,,,,,,,,,
acc,1778675411.0,156.0,0.12402339096548838,0.3316527873284948,-9.810595265363204,,,,,,,,,,
acc,1778675411.0,156.0,0.123956066450599,0.3318873627862421,-9.810498600716235,,,,,,,,,,
acc,1778675411.0,156.0,0.1238895022014811,0.33177351855351217,-9.810403027660087,,,,,,,,,,
acc,1778675411.0,156.0,0.12382368693713912,0.3320062312093054,-9.810308529997485,,,,,,,,,,
acc,1778675411.0,156.0,0.1233755120569132,0.3318915438731293,-9.810215091872635,,,,,,,,,,
acc,1778675411.0,156.0,0.12293234477710999,0.33212245301915805,-9.810122697761662,,,,,,,,,,
acc,1778675411.0,156.0,0.12287616293656843,0.33200694237103506,-9.810375181073539,,,,,,,,,,
acc,1778675411.0,156.0,0.12243906199645994,0.33223610485025457,-9.810624862455013,,,,,,,,,,
acc,1778675411.0,156.0,0.12238783994209546,0.33211978987486496,-9.810871782203503,,,,,,,,,,
acc,1778675411.0,156.0,0.1219566269426035,0.33234726020769945,-9.811115979796249,,,,,,,,,,
acc,1778675411.0,156.0,0.12191022899784157,0.3325722308792565,-9.811357493912608,,,,,,,,,,
acc,1778675411.0,156.0,0.12186433930149262,0.3327947371962528,-9.811254713616627,,,,,,,,,,
acc,1778675411.0,156.0,0.12181895071703601,0.3330148137616831,-9.811494289780041,,,,,,,,,,
acc,1778675411.0,156.0,0.12177405624921026,0.333232494493616,-9.81210994199455,,,,,,,,,,
acc,1778675411.0,156.0,0.121729649040262,0.3334478126433817,-9.812340671295104,,,,,,,,,,
acc,1778675411.0,156.0,0.1220635286922748,0.33366080081317495,-9.812228866550306,,,,,,,,,,
acc,1778675411.0,156.0,0.12239380599051575,0.33353183734608743,-9.812118268109161,,,,,,,,,,
acc,1778675411.0,156.0,0.12272053008621044,0.33340426129897116,-9.812348136840406,,,,,,,,,,
acc,1778675411.0,156.0,0.12338264780319612,0.33327805384676423,-9.812613192872847,,,,,,,,,,
acc,1778675411.0,156.0,0.12369914576911456,0.3331531965219661,-9.812499254124322,,,,,,,,,,
acc,1778675411.0,156.0,0.12401226725778158,0.3330296712054659,-9.812386530902069,,,,,,,,,,
acc,1778675411.0,156.0,0.12432205733831421,0.3329074601176567,-9.811862094259507,,,,,,,,,,
acc,1778675411.0,156.0,0.12425357158257189,0.332786545809827,-9.81134322240612,,,,,,,,,,
acc,1778675411.0,156.0,0.12418581062160824,0.3326669111558177,-9.810829841849513,,,,,,,,,,
acc,1778675411.0,156.0,0.12449301608390112,0.3321742881933317,-9.81035931322657,,,,,,,,,,
acc,1778675411.0,156.0,0.12479698697921063,0.3320607449685698,-9.809856341852154,,,,,,,,,,
acc,1778675411.0,156.0,0.12472422387603545,0.33157485276128157,-9.809732204076768,,,,,,,,,,
acc,1778675411.0,156.0,0.1246522231000565,0.33109405116761337,-9.809609366872662,,,,,,,,,,
acc,1778675411.0,156.0,0.12458097483831324,0.3306182746592842,-9.809487813498396,,,,,,,,,,
acc,1778675411.0,156.0,0.12413793309687862,0.33014745887180375,-9.809367527509863,,,,,,,,,,
acc,1778675411.0,156.0,0.12332728905417382,0.33005374193151915,-9.809285710982909,,,,,,,,,,
acc,1778675411.0,156.0,0.1225250579993554,0.32996099759997755,-9.809204743560388,,,,,,,,,,
acc,1778675411.0,156.0,0.12173113373180718,0.3298692135995375,-9.809459037873905,,,,,,,,,,
acc,1778675411.0,156.0,0.12094541188820424,0.3297783778649634,-9.80937655819123,,,,,,,,,,
acc,1778675411.0,156.0,0.12016778989903242,0.3296884785383983,-9.809294928775643,,,,,,,,,,
acc,1778675411.0,156.0,0.11939816694638086,0.3295995039644846,-9.80921413904397,,,,,,,,,,
acc,1778675411.0,156.0,0.1190068273703548,0.329511442685627,-9.809134178592611,,,,,,,,,,
acc,1778675411.0,156.0,0.11861949636978969,0.32942428343739216,-9.809055037193357,,,,,,,,,,
acc,1778675411.0,156.0,0.11823612472470284,0.32933801514404215,-9.808976704789334,,,,,,,,,,
acc,1778675411.0,156.0,0.11748711885090264,0.32925262691419555,-9.808899171491069,,,,,,,,,,
acc,1778675411.0,156.0,0.11711501495522898,0.3291681080366133,-9.808822427572657,,,,,,,,,,
acc,1778675411.0,156.0,0.11674669209862984,0.3290844479761044,-9.80874646346805,,,,,,,,,,
acc,1778675411.0,156.0,0.11638210465629535,0.3290016363695479,-9.808671269767437,,,,,,,,,,
acc,1778675411.0,156.0,0.11638970703875023,0.32891966302202674,-9.80859683721374,,,,,,,,,,
acc,1778675411.0,156.0,0.11639723260952782,0.3288385179030713,-9.808854584514139,,,,,,,,,,
acc,1778675411.0,156.0,0.1167726782158661,0.32908939878669974,-9.809109732400085,,,,,,,,,,
acc,1778675411.0,156.0,0.11714434422545603,0.3293377540619419,-9.809362311721895,,,,,,,,,,
acc,1778675411.0,156.0,0.11784304551025503,0.3295836135828466,-9.809649102994465,,,,,,,,,,
acc,1778675411.0,156.0,0.11853473768684149,0.32982700673360915,-9.80952899162638,,,,,,,,,,
acc,1778675411.0,156.0,0.11888914490984528,0.33043502484522647,-9.809813859270779,,,,,,,,,,
acc,1778675411.0,156.0,0.1195701666564883,0.3306701244157212,-9.810095878931808,,,,,,,,,,
acc,1778675411.0,156.0,0.11991442995616453,0.330902877456253,-9.810338423487185,,,,,,,,,,
acc,1778675411.0,156.0,0.12058503102857408,0.33113331117190203,-9.810212134664274,,,,,,,,,,
acc,1778675411.0,156.0,0.121615166586272,0.33136145235225395,-9.810489926214844,,,,,,,,,,
acc,1778675411.0,156.0,0.12226906994778297,0.33158732738015617,-9.810764958430154,,,,,,,,,,
acc,1778675411.0,156.0,0.12328228525323415,0.331810962240239,-9.810634888859251,,,,,,,,,,
acc,1778675411.0,156.0,0.12391986866661402,0.33170334116257594,-9.81090826274751,,,,,,,,,,
acc,1778675411.0,156.0,0.12491655109445189,0.33159678422096445,-9.811178933568522,,,,,,,,,,
acc,1778675411.0,156.0,0.12553818116628818,0.3318199728238764,-9.81104520174493,,,,,,,,,,
acc,1778675411.0,156.0,0.12615368261256643,0.3320409610194431,-9.81091278837794,,,,,,,,,,
acc,1778675411.0,156.0,0.12676312448944754,0.3322597736014266,-9.810453329527737,,,,,,,,,,
acc,1778675411.0,156.0,0.127038388629596,0.33247643500204965,-9.810363036967926,,,,,,,,,,
acc,1778675411.0,156.0,0.12731095032579878,0.33269096929926556,-9.810273630867867,,,,,,,,,,
acc,1778675411.0,156.0,0.12758083972753773,0.332575521395622,-9.810185101337883,,,,,,,,,,
acc,1778675411.0,156.0,0.12748396024493056,0.332788928743413,-9.810097438630107,,,,,,,,,,
acc,1778675411.0,156.0,0.1277519865157673,0.3330002492787725,-9.810010633135684,,,,,,,,,,
acc,1778675411.0,156.0,0.12765360161389208,0.3328820806159862,-9.809924675382042,,,,,,,,,,
acc,1778675411.0,156.0,0.12755617632389493,0.3330923444166079,-9.809839556030227,,,,,,,,,,
acc,1778675411.0,156.0,0.1274597001066322,0.3333005599231962,-9.809755265872308,,,,,,,,,,
acc,1778675411.0,156.0,0.12700083588084365,0.3338700669521192,-9.809635465950253,,,,,,,,,,
acc,1778675411.0,156.0,0.12654643089312612,0.3344340395172894,-9.809516830242671,,,,,,,,,,
acc,1778675411.0,156.0,0.12573341290418666,0.33462952345762575,-9.809762369775617,,,,,,,,,,
acc,1778675411.0,156.0,0.12529115375302297,0.33482311212492444,-9.810005528732155,,,,,,,,,,
acc,1778675411.0,156.0,0.12449044573462284,0.3350148260319855,-9.80991987145964,,,,,,,,,,
acc,1778675411.0,156.0,0.1240600731940397,0.3352046854127521,-9.810161376483558,,,,,,,,,,
acc,1778675411.0,156.0,0.12363385924089557,0.33506650188802173,-9.810074339562421,,,,,,,,,,
acc,1778675411.0,156.0,0.12321175923814638,0.33492965215389564,-9.810314228044003,,,,,,,,,,
acc,1778675411.0,156.0,0.12279372914638506,0.3347941219322855,-9.81055180350791,,,,,,,,,,
acc,1778675411.0,156.0,0.12201767751548229,0.3346598971353172,-9.810461244671076,,,,,,,,,,
acc,1778675411.0,156.0,0.12124909312578229,0.33452696386186925,-9.81037155719982,,,,,,,,,,
acc,1778675411.0,156.0,0.12048789666496547,0.334033525843899,-9.810246555436368,,,,,,,,,,
acc,1778675411.0,156.0,0.11973400986186446,0.333544826238679,-9.81052058524477,,,,,,,,,,
acc,1778675411.0,156.0,0.1193489004528236,0.3326992792410113,-9.810394289442801,,,,,,,,,,
acc,1778675412.0,157.0,0.11896748205052415,0.33222325194441854,-9.81026920409855,,,,,,,,,,
acc,1778675412.0,157.0,0.11858971583856819,0.3317517827454042,-9.810145316482263,,,,,,,,,,
acc,1778675412.0,157.0,0.11821556350049031,0.33128482382329844,-9.810022614028139,,,,,,,,,,
acc,1778675412.0,157.0,0.1178449872110249,0.33082232797047095,-9.809901084331461,,,,,,,,,,
acc,1778675412.0,157.0,0.11711698301784079,0.3307252059507924,-9.809816809034592,,,,,,,,,,
acc,1778675412.0,157.0,0.11675678181928734,0.33062901055435556,-9.810058112081146,,,,,,,,,,
acc,1778675412.0,157.0,0.11640001426956521,0.33053373214878906,-9.809972437219935,,,,,,,,,,
acc,1778675412.0,157.0,0.11640728925406162,0.3304393612229758,-9.80988757836946,,,,,,,,,,
acc,1778675412.0,157.0,0.1164144950056348,0.3303458883849954,-9.81012801680024,,,,,,,,,,
acc,1778675412.0,157.0,0.11678206251725869,0.3302533043601134,-9.810041770630978,,,,,,,,,,
acc,1778675412.0,157.0,0.11714613771928152,0.3298012693901458,-9.80992031268351,,,,,,,,,,
acc,1778675412.0,157.0,0.11750675652605255,0.3293535258729197,-9.810196271215094,,,,,,,,,,
acc,1778675412.0,157.0,0.1178639544095735,0.3289100297664759,-9.81007345419057,,,,,,,,,,
acc,1778675412.0,157.0,0.11854180641619842,0.3284707375690174,-9.810311852975056,,,,,,,,,,
acc,1778675412.0,157.0,0.11888928116123701,0.32803560631005474,-9.809864077900372,,,,,,,,,,
acc,1778675412.0,157.0,0.11955734200730798,0.3276045935417449,-9.809780399973347,,,,,,,,,,
acc,1778675412.0,157.0,0.12021908427465203,0.32717765733042076,-9.809697513479577,,,,,,,,,,
acc,1778675412.0,157.0,0.12087457217546574,0.3267547562483039,-9.809615410376166,,,,,,,,,,
acc,1778675412.0,157.0,0.12152386915039419,0.326335849365398,-9.809534082716858,,,,,,,,,,
acc,1778675412.0,157.0,0.12252655897457916,0.326280408131687,-9.809813043744255,,,,,,,,,,
acc,1778675412.0,157.0,0.12316035326076134,0.3262254898147676,-9.810448802691168,,,,,,,,,,
acc,1778675412.0,157.0,0.12378817361667237,0.32617108913930226,-9.810323931581525,,,,,,,,,,
acc,1778675412.0,157.0,0.12476935730920326,0.3261172008923561,-9.81059543875593,,,,,,,,,,
acc,1778675412.0,157.0,0.12538210589203308,0.3263871015443167,-9.811223579639151,,,,,,,,,,
acc,1778675412.0,157.0,0.12598908999076383,0.3266544630830747,-9.811486698624977,,,,,,,,,,
acc,1778675412.0,157.0,0.1262672321466482,0.32691931094840454,-9.81171144195479,,,,,,,,,,
acc,1778675412.0,157.0,0.12654276085828406,0.3271816702836222,-9.811610995905108,,,,,,,,,,
acc,1778675412.0,157.0,0.12681570222448638,0.3274415659401042,-9.811511493091528,,,,,,,,,,
acc,1778675412.0,157.0,0.12708608204212415,0.32769902248171306,-9.811412924109609,,,,,,,,,,
acc,1778675412.0,157.0,0.12767680134271545,0.3276311794730092,-9.811279406645117,,,,,,,,,,
acc,1778675412.0,157.0,0.1279391695230874,0.3275639724436814,-9.811183006942677,,,,,,,,,,
acc,1778675412.0,157.0,0.12784046747953853,0.32749739508217535,-9.810693029788082,,,,,,,,,,
acc,1778675412.0,157.0,0.12774268967875513,0.32775414329741287,-9.810207640763823,,,,,,,,,,
acc,1778675412.0,157.0,0.12764582697568175,0.32836696916343294,-9.80976264986824,,,,,,,,,,
acc,1778675412.0,157.0,0.12719144457734108,0.32897406264008605,-9.80932182142927,,,,,,,,,,
acc,1778675412.0,157.0,0.12674131028667243,0.329575480284081,-9.808885114379422,,,,,,,,,,
acc,1778675412.0,157.0,0.1262953822500461,0.33017127801542184,-9.808452488113534,,,,,,,,,,
acc,1778675412.0,157.0,0.1258536190834931,0.33076151112660607,-9.8080239024821,,,,,,,,,,
acc,1778675412.0,157.0,0.12541597986595532,0.3317044156319572,-9.807921674572466,,,,,,,,,,
acc,1778675412.0,157.0,0.12498242413266744,0.33263852216961604,-9.807498096238692,,,,,,,,,,
acc,1778675412.0,157.0,0.12419484614313439,0.3335639169528079,-9.807400721058544,,,,,,,,,,
acc,1778675412.0,157.0,0.1237726194226944,0.3344806852393599,-9.806982051475696,,,,,,,,,,
acc,1778675412.0,157.0,0.1229963725966927,0.33538891134515136,-9.80688943538244,,,,,,,,,,
acc,1778675412.0,157.0,0.122227355370974,0.33628867865730716,-9.806797681872206,,,,,,,,,,
acc,1778675412.0,157.0,0.12146549725857998,0.33718006964714126,-9.806384726750123,,,,,,,,,,
acc,1778675412.0,157.0,0.12035294305603247,0.3380631658828554,-9.806297623114114,,,,,,,,,,
acc,1778675412.0,157.0,0.1196084714261448,0.33858030467988526,-9.806604844619219,,,,,,,,,,
acc,1778675412.0,157.0,0.11887092157277698,0.3390926353431474,-9.806193832845134,,,,,,,,,,
acc,1778675412.0,157.0,0.11814022632898903,0.3392425701064481,-9.806466157305135,,,,,,,,,,
acc,1778675412.0,157.0,0.11741631925509194,0.339391111973525,-9.806735951866774,,,,,,,,,,
acc,1778675412.0,157.0,0.11669913462880903,0.33989581267622404,-9.806645693625153,,,,,,,,,,
acc,1778675412.0,157.0,0.11598860743561719,0.3400383369093905,-9.807271265314311,,,,,,,,,,
acc,1778675412.0,157.0,0.11564212805200595,0.3401795386331153,-9.807211874694191,,,,,,,,,,
acc,1778675412.0,157.0,0.11494145290892734,0.34031943061035985,-9.807832106804085,,,,,,,,,,
acc,1778675412.0,157.0,0.1146046399667072,0.34045802546772197,-9.808089231753206,,,,,,,,,,
acc,1778675412.0,157.0,0.1142709489244843,0.3405953356972371,-9.808343973425805,,,,,,,,,,
acc,1778675412.0,157.0,0.11394034974685312,0.3404098196352537,-9.808274800728189,,,,,,,,,,
acc,1778675412.0,157.0,0.11397005002133785,0.3402260219005274,-9.808527785054535,,,,,,,,,,
acc,1778675412.0,157.0,0.11435666232232418,0.33968673896520013,-9.808814143811448,,,,,,,,,,
acc,1778675412.0,157.0,0.11473969609084893,0.3391524477010771,-9.80909785199541,,,,,,,,,,
acc,1778675412.0,157.0,0.11511918562242615,0.3386231002695732,-9.809378935008668,,,,,,,,,,
acc,1778675412.0,157.0,0.11549516485238381,0.3380986493345244,-9.809657417986683,,,,,,,,,,
acc,1778675412.0,157.0,0.116188996059924,0.3375790480557596,-9.809576286804312,,,,,,,,,,
acc,1778675412.0,157.0,0.1165551184130543,0.3370642500827829,-9.809852907090605,,,,,,,,,,
acc,1778675412.0,157.0,0.11723911906834959,0.33619725405210554,-9.809770006391732,,,,,,,,,,
acc,1778675412.0,157.0,0.11759557130816753,0.3353382678315893,-9.80933095224979,,,,,,,,,,
acc,1778675412.0,157.0,0.11826992867601395,0.33448721506652046,-9.808860257448945,,,,,,,,,,
acc,1778675412.0,157.0,0.11893805960579927,0.333644020193396,-9.80878644979571,,,,,,,,,,
acc,1778675412.0,157.0,0.1199568472086731,0.33280860843006027,-9.808320819923571,,,,,,,,,,
acc,1778675412.0,157.0,0.12028833846405919,0.3319809057660054,-9.80860874361533,,,,,,,,,,
acc,1778675412.0,157.0,0.12093784672485783,0.33151758706765133,-9.808858338123922,,,,,,,,,,
acc,1778675412.0,157.0,0.12126031869475296,0.3310585414892841,-9.808748905809766,,,,,,,,,,
acc,1778675412.0,157.0,0.12157981734562638,0.33060372849259034,-9.808640482504801,,,,,,,,,,
acc,1778675412.0,157.0,0.1218963708634961,0.33050976063289467,-9.80856872208576,,,,,,,,,,
acc,1778675412.0,157.0,0.12221000714644474,0.3300600367285452,-9.808461962607328,,,,,,,,,,
acc,1778675412.0,157.0,0.1225207538081078,0.32997104817075684,-9.808391844099994,,,,,,,,,,
acc,1778675412.0,157.0,0.12282863818110591,0.3298828792869077,-9.808322371454492,,,,,,,,,,
acc,1778675412.0,157.0,0.12345456914444684,0.32979552232925896,-9.808217887058298,,,,,,,,,,
acc,1778675412.0,157.0,0.12375388125764598,0.32935246479058156,-9.808506527227063,,,,,,,,,,
acc,1778675412.0,157.0,0.12405043838321501,0.32926996219162935,-9.808436024649014,,,,,,,,,,
acc,1778675412.0,157.0,0.12434426650869257,0.3291882188042444,-9.808366170855043,,,,,,,,,,
acc,1778675412.0,157.0,0.12427896893387026,0.3294280186041029,-9.808296959729264,,,,,,,,,,
acc,1778675412.0,157.0,0.12421427197551693,0.32934484539019127,-9.808228385217356,,,,,,,,,,
acc,1778675412.0,157.0,0.12415016997906536,0.32958318095020567,-9.808160441325853,,,,,,,,,,
acc,1778675412.0,157.0,0.12408665734668438,0.3298193252147286,-9.808093122121422,,,,,,,,,,
acc,1778675412.0,157.0,0.12402372853661703,0.32973260041704405,-9.808347120101509,,,,,,,,,,
acc,1778675412.0,157.0,0.12431767281674445,0.3296466726481086,-9.808278107534258,,,,,,,,,,
acc,1778675412.0,157.0,0.1242526456094854,0.32956153442247244,-9.808209729085766,,,,,,,,,,
acc,1778675412.0,157.0,0.1241882157824283,0.3297978114587058,-9.808462611933448,,,,,,,,,,
acc,1778675412.0,157.0,0.1237681450303523,0.33003191833322715,-9.808713172098054,,,,,,,,,,
acc,1778675412.0,157.0,0.12335193180916412,0.3302638753925208,-9.808640839770872,,,,,,,,,,
acc,1778675412.0,157.0,0.12293953997235282,0.3304937027811616,-9.808177368167613,,,,,,,,,,
acc,1778675412.0,157.0,0.12217476839789014,0.3307214204441143,-9.807718151052702,,,,,,,,,,
acc,1778675412.0,157.0,0.12177315953586429,0.3313031826999407,-9.807619292291045,,,,,,,,,,
acc,1778675412.0,157.0,0.12137523595409601,0.3315234932165501,-9.807165218250871,,,,,,,,,,
acc,1778675412.0,157.0,0.120980963193224,0.33174178245501834,-9.807427513330838,,,,,,,,,,
acc,1778675412.0,157.0,0.12059030713340169,0.3319580693058092,-9.807366926646607,,,,,,,,,,
acc,1778675412.0,157.0,0.1202032339904925,0.33217237247352044,-9.807306895635456,,,,,,,,,,
acc,1778675412.0,157.0,0.1198197103123195,0.3323847104789605,-9.8072474151093,,,,,,,,,,
acc,1778675412.0,157.0,0.11908368115570722,0.33259510166119505,-9.807188479930964,,,,,,,,,,
acc,1778675412.0,157.0,0.11871040198412196,0.3328035641795651,-9.806738484691753,,,,,,,,,,
acc,1778675412.0,157.0,0.11834054413688896,0.3330101160156766,-9.8066841936818,,,,,,,,,,
acc,1778675412.0,157.0,0.11797407573035598,0.33321477497536217,-9.806630400203968,,,,,,,,,,
acc,1778675412.0,157.0,0.1176109651921519,0.33341755869061546,-9.806577099623784,,,,,,,,,,
acc,1778675412.0,157.0,0.11725118125777097,0.33329814488256937,-9.806524287351966,,,,,,,,,,
acc,1778675412.0,157.0,0.11725060559774347,0.33317982491263054,-9.80647195884393,,,,,,,,,,
acc,1778675412.0,157.0,0.11725003521003878,0.33306258860500215,-9.806420109599303,,,,,,,,,,
acc,1778675412.0,157.0,0.116893591226268,0.33294642588276074,-9.806689028831975,,,,,,,,,,
acc,1778675412.0,157.0,0.11689627327845675,0.33283132676678334,-9.806955485792974,,,,,,,,,,
acc,1778675412.0,157.0,0.11689893077665633,0.33271728137468914,-9.807219503360228,,,,,,,,,,
acc,1778675412.0,157.0,0.1169015639489171,0.3326042799197954,-9.807481104190119,,,,,,,,,,
acc,1778675412.0,157.0,0.11654835822176514,0.33249231271008733,-9.807740310719874,,,,,,,,,,
acc,1778675412.0,157.0,0.11655418430356575,0.3323813701472018,-9.807997145169912,,,,,,,,,,
acc,1778675412.0,157.0,0.11691573247232959,0.3322714427254246,-9.80793142075977,,,,,,,,,,
acc,1778675412.0,157.0,0.11727397283337372,0.3318067603705265,-9.808577828090835,,,,,,,,,,
acc,1778675412.0,157.0,0.11762893605100508,0.3317020750697497,-9.808827003170027,,,,,,,,,,
acc,1778675412.0,157.0,0.11798065249444745,0.33159834730348814,-9.809429631081255,,,,,,,,,,
acc,1778675412.0,157.0,0.11864930029384597,0.3314955682013919,-9.810062317514019,,,,,,,,,,
acc,1778675412.0,157.0,0.1193118335425492,0.3313937289783034,-9.81033351391145,,,,,,,,,,
acc,1778675412.0,157.0,0.11964818522272248,0.3312928209333583,-9.81056666332686,,,,,,,,,,
acc,1778675412.0,157.0,0.12030157351704604,0.33119283544909867,-9.810833247100774,,,,,,,,,,
acc,1778675412.0,157.0,0.12094898880703611,0.3310937639905967,-9.811097393876581,,,,,,,,,,
acc,1778675412.0,157.0,0.12194614743002044,0.3313156958230472,-9.81096790171767,,,,,,,,,,
acc,1778675412.0,157.0,0.12257854379315825,0.3312155128113923,-9.8108395930694,,,,,,,,,,
acc,1778675412.0,157.0,0.12356079721162867,0.33111624534039563,-9.810712456993029,,,,,,,,,,
acc,1778675412.0,157.0,0.12417845077094081,0.3313379495284055,-9.810977666624469,,,,,,,,,,
acc,1778675413.0,158.0,0.12479046093280308,0.3315576280422646,-9.811240453079785,,,,,,,,,,
acc,1778675413.0,158.0,0.1250768454406471,0.331775299587781,-9.811465281383995,,,,,,,,,,
acc,1778675413.0,158.0,0.1253606138114983,0.3319909826926978,-9.811368022663634,,,,,,,,,,
acc,1778675413.0,158.0,0.12528622107543252,0.3322046957085303,-9.811591675448568,,,,,,,,,,
acc,1778675413.0,158.0,0.12485694057304661,0.3324164568123814,-9.811102151098513,,,,,,,,,,
acc,1778675413.0,158.0,0.1244315804732626,0.33262628400873406,-9.810617097327777,,,,,,,,,,
acc,1778675413.0,158.0,0.1240101046238737,0.33283419513122187,-9.810527570581609,,,,,,,,,,
acc,1778675413.0,158.0,0.12359247721547162,0.3330402078443784,-9.81043886129248,,,,,,,,,,
acc,1778675413.0,158.0,0.12317866277794391,0.3332443396453648,-9.810350961926094,,,,,,,,,,
acc,1778675413.0,158.0,0.12276862617701365,0.33312664149912535,-9.809872801083307,,,,,,,,,,
acc,1778675413.0,158.0,0.12236233261082081,0.33301001776489914,-9.809399005149995,,,,,,,,,,
acc,1778675413.0,158.0,0.12195974760654484,0.3328944585475035,-9.808929533925959,,,,,,,,,,
acc,1778675413.0,158.0,0.12156083701706738,0.333099894283528,-9.80885537959294,,,,,,,,,,
acc,1778675413.0,158.0,0.12116556701767502,0.33298352330249464,-9.808390880276102,,,,,,,,,,
acc,1778675413.0,158.0,0.12041843647066133,0.33318813787790347,-9.80793061980435,,,,,,,,,,
acc,1778675413.0,158.0,0.12003358207270144,0.3333908853605767,-9.807474559175066,,,,,,,,,,
acc,1778675413.0,158.0,0.11965223917925291,0.33327187536930974,-9.807413651812015,,,,,,,,,,
acc,1778675413.0,158.0,0.11927437549446238,0.33279851913602126,-9.806997868103535,,,,,,,,,,
acc,1778675413.0,158.0,0.11925539165001105,0.3326849048141286,-9.806941301077433,,,,,,,,,,
acc,1778675413.0,158.0,0.11888115671698625,0.33257232691203037,-9.806885250070657,,,,,,,,,,
acc,1778675413.0,158.0,0.11851033541580548,0.3324607759036762,-9.806829710340313,,,,,,,,,,
acc,1778675413.0,158.0,0.11814289637715657,0.33235024235250354,-9.806774677188066,,,,,,,,,,
acc,1778675413.0,158.0,0.11777880852623873,0.33256057971527836,-9.806720145959689,,,,,,,,,,
acc,1778675413.0,158.0,0.11741804107982996,0.33276899884561006,-9.80666611204463,,,,,,,,,,
acc,1778675413.0,158.0,0.11706056354338798,0.3329755173605149,-9.806612570875568,,,,,,,,,,
acc,1778675413.0,158.0,0.11670634570818436,0.3328603105085451,-9.806559517927996,,,,,,,,,,
acc,1778675413.0,158.0,0.11671072748653433,0.3327461541182682,-9.806826784303247,,,,,,,,,,
acc,1778675413.0,158.0,0.11671506931406653,0.3326330385476723,-9.80709161388015,,,,,,,,,,
acc,1778675413.0,158.0,0.11671937155741668,0.3325209542449712,-9.807354029021631,,,,,,,,,,
acc,1778675413.0,158.0,0.1173987813823811,0.33240989174771374,-9.807649584008592,,,,,,,,,,
acc,1778675413.0,158.0,0.11739686398177228,0.33229984168190335,-9.807906913310791,,,,,,,,,,
acc,1778675413.0,158.0,0.11739496405894399,0.33219079476112734,-9.808161896965945,,,,,,,,,,
acc,1778675413.0,158.0,0.11774840077776534,0.3320827417856959,-9.80876987580978,,,,,,,,,,
acc,1778675413.0,158.0,0.11809861615425998,0.3319756736417909,-9.809017000475615,,,,,,,,,,
acc,1778675413.0,158.0,0.11844563972121397,0.3318695813006238,-9.809261872884928,,,,,,,,,,
acc,1778675413.0,158.0,0.11878950073600839,0.33140915555962086,-9.809895342147406,,,,,,,,,,
acc,1778675413.0,158.0,0.11944999472067264,0.33095292562759776,-9.81013221694901,,,,,,,,,,
acc,1778675413.0,158.0,0.12010447000429174,0.3305008530560237,-9.810366933247055,,,,,,,,,,
acc,1778675413.0,158.0,0.1207529817312624,0.3300528997544317,-9.81059951081813,,,,,,,,,,
acc,1778675413.0,158.0,0.12107583394535798,0.3296090279869295,-9.811220771485788,,,,,,,,,,
acc,1778675413.0,158.0,0.12139574462845693,0.3295244710831647,-9.811445575833558,,,,,,,,,,
acc,1778675413.0,158.0,0.12135747559686566,0.32944068454713515,-9.811668332069246,,,,,,,,,,
acc,1778675413.0,158.0,0.12167481483684459,0.3293576613246613,-9.811569314364355,,,,,,,,,,
acc,1778675413.0,158.0,0.12163400893850043,0.32927539442711995,-9.81147119869093,,,,,,,,,,
acc,1778675413.0,158.0,0.12194882370500384,0.3291938769308091,-9.81137397679141,,,,,,,,,,
acc,1778675413.0,158.0,0.12226077082786314,0.3291131019763198,-9.810886865083898,,,,,,,,,,
acc,1778675413.0,158.0,0.12256987655173253,0.32903306276791466,-9.811114685760641,,,,,,,,,,
acc,1778675413.0,158.0,0.12252093324170796,0.3289537525729128,-9.811340431400284,,,,,,,,,,
acc,1778675413.0,158.0,0.12211719788894683,0.3291948814780141,-9.8112444042318,,,,,,,,,,
acc,1778675413.0,158.0,0.12171713953497278,0.32943381431411745,-9.810758498077718,,,,,,,,,,
acc,1778675413.0,158.0,0.121320724544692,0.32967057116961307,-9.810277017110167,,,,,,,,,,
acc,1778675413.0,158.0,0.12057269601813055,0.3299051719467636,-9.810190664060974,,,,,,,,,,
acc,1778675413.0,158.0,0.11983147931273197,0.3304928462728744,-9.810069578201968,,,,,,,,,,
acc,1778675413.0,158.0,0.11909701213969356,0.3310751692262322,-9.809629908257469,,,,,,,,,,
acc,1778675413.0,158.0,0.11836923278675734,0.3312969887262428,-9.809158714429493,,,,,,,,,,
acc,1778675413.0,158.0,0.11729288343308056,0.3315167884841617,-9.808691810981795,,,,,,,,,,
acc,1778675413.0,158.0,0.11622633425233682,0.33173458696282043,-9.808229158695223,,,,,,,,,,
acc,1778675413.0,158.0,0.11516949566892612,0.33163072211409805,-9.807770718713288,,,,,,,,,,
acc,1778675413.0,158.0,0.11380261137685967,0.33184747954068866,-9.80770716238392,,,,,,,,,,
acc,1778675413.0,158.0,0.11244817127932308,0.3320622635949917,-9.807644184675091,,,,,,,,,,
acc,1778675413.0,158.0,0.11110606166897422,0.33227509230846086,-9.806942459539988,,,,,,,,,,
acc,1778675413.0,158.0,0.1097761698886544,0.3324859835460142,-9.806247122525766,,,,,,,,,,
acc,1778675413.0,158.0,0.10845838432138769,0.3323752924563451,-9.80555811527323,,,,,,,,,,
acc,1778675413.0,158.0,0.10715259438048322,0.3322656089729105,-9.805123991648806,,,,,,,,,,
acc,1778675413.0,158.0,0.10585869049973982,0.3321569238923905,-9.804445210554581,,,,,,,,,,
acc,1778675413.0,158.0,0.10457656412375121,0.33204922809636955,-9.803772607931325,,,,,,,,,,
acc,1778675413.0,158.0,0.10362574805110085,0.331942512550531,-9.803106127356175,,,,,,,,,,
acc,1778675413.0,158.0,0.10236394885388003,0.33183676830385866,-9.802090553384765,,,,,,,,,,
acc,1778675413.0,158.0,0.10111363391489936,0.33205162972998187,-9.801084222654099,,,,,,,,,,
acc,1778675413.0,158.0,0.10019432951840358,0.3319448954271371,-9.800087050775472,,,,,,,,,,
acc,1778675413.0,158.0,0.09928339169239157,0.3321587697729358,-9.799098954137689,,,,,,,,,,
acc,1778675413.0,158.0,0.09873588122343623,0.33272583486495233,-9.798084338002164,,,,,,,,,,
acc,1778675413.0,158.0,0.098193353364288,0.33261297390945516,-9.79672382137879,,,,,,,,,,
acc,1778675413.0,158.0,0.09836604255987495,0.33282076870740995,-9.795020545825496,,,,,,,,,,
acc,1778675413.0,158.0,0.09853716028298465,0.3327070466342979,-9.793332770087602,,,,,,,,,,
acc,1778675413.0,158.0,0.0990618456779589,0.3325943594061017,-9.7916603527238,,,,,,,,,,
acc,1778675413.0,158.0,0.0999013681622888,0.3324826975802098,-9.790393794906414,,,,,,,,,,
acc,1778675413.0,158.0,0.10144349856941225,0.3323720518008668,-9.789103251824873,,,,,,,,,,
acc,1778675413.0,158.0,0.10332672218415924,0.332262412798356,-9.787824451521802,,,,,,,,,,
acc,1778675413.0,158.0,0.10519281056948973,0.3321537713881897,-9.786557286871766,,,,,,,,,,
acc,1778675413.0,158.0,0.10739703061102476,0.3320461184703079,-9.785337160973654,,,,,,,,,,
acc,1778675413.0,158.0,0.10958119564280333,0.33193944502828504,-9.784447735257933,,,,,,,,,,
acc,1778675413.0,158.0,0.11206508511712654,0.33147863688748536,-9.783921507006111,,,,,,,,,,
acc,1778675413.0,158.0,0.11488148776455462,0.3313771238493869,-9.783719669697144,,,,,,,,,,
acc,1778675413.0,158.0,0.11767226718259054,0.33092143426654996,-9.78323558496224,,,,,,,,,,
acc,1778675413.0,158.0,0.12043765702898242,0.3304698903941322,-9.783395083570772,,,,,,,,,,
acc,1778675413.0,158.0,0.12353299304193675,0.3303775495651091,-9.783553131145034,,,,,,,,,,
acc,1778675413.0,158.0,0.12660016989814624,0.3302860487870102,-9.783709740915322,,,,,,,,,,
acc,1778675413.0,158.0,0.12928434488969287,0.33019538040085167,-9.784575115786033,,,,,,,,,,
acc,1778675413.0,158.0,0.1319441021506262,0.33010553681793264,-9.78543261840902,,,,,,,,,,
acc,1778675413.0,158.0,0.1342245694462649,0.33001651051917785,-9.786246813793225,,,,,,,,,,
acc,1778675413.0,158.0,0.13648429230881562,0.3299282940544869,-9.787408686289389,,,,,,,,,,
acc,1778675413.0,158.0,0.13872345982717202,0.3298408800420902,-9.78855998992799,,,,,,,,,,
acc,1778675413.0,158.0,0.14094225935623567,0.3300738432957241,-9.79005590926361,,,,,,,,,,
acc,1778675413.0,158.0,0.14282130540665597,0.32998510728314684,-9.791928813597055,,,,,,,,,,
acc,1778675413.0,158.0,0.1446832598293571,0.3298971784050685,-9.793784682167265,,,,,,,,,,
acc,1778675413.0,158.0,0.14617320550679283,0.32981004930591845,-9.795943237631523,,,,,,,,,,
acc,1778675413.0,158.0,0.14729451928934836,0.33004328738525823,-9.798082159755221,,,,,,,,,,
acc,1778675413.0,158.0,0.1476954873555362,0.3302744040617864,-9.80023713251368,,,,,,,,,,
acc,1778675413.0,158.0,0.14777324642444079,0.3305034186653068,-9.802337000294264,,,,,,,,,,
acc,1778675413.0,158.0,0.14749523321254474,0.33073035034855663,-9.80441776947983,,,,,,,,,,
acc,1778675413.0,158.0,0.14650960398584398,0.33063565031708736,-9.806479614076128,,,,,,,,,,
acc,1778675413.0,158.0,0.14553293891374497,0.3308613776889301,-9.808913281249307,,,,,,,,,,
acc,1778675413.0,158.0,0.1442100967865101,0.3307654876359483,-9.811324814912952,,,,,,,,,,
acc,1778675413.0,158.0,0.14257973153331377,0.33067046966253133,-9.813323845869707,,,,,,,,,,
acc,1778675413.0,158.0,0.14060912841553833,0.3305763158246929,-9.815340200538667,,,,,,,,,,
acc,1778675413.0,158.0,0.13830139224191307,0.3304830182511559,-9.817302714235307,,,,,,,,,,
acc,1778675413.0,158.0,0.13565958129117506,0.33039056914267767,-9.818892327817316,,,,,,,,,,
acc,1778675413.0,158.0,0.13268674409723163,0.33061851759180544,-9.820858039665763,,,,,,,,,,
acc,1778675413.0,158.0,0.12942139539543984,0.33084439309395763,-9.822770372348431,,,,,,,,,,
acc,1778675413.0,158.0,0.12618574114117456,0.3310682145281193,-9.82431026683438,,,,,,,,,,
acc,1778675413.0,158.0,0.12297951090852745,0.33129000060058905,-9.825836158004433,,,,,,,,,,
acc,1778675413.0,158.0,0.11980243674488923,0.33119021868345455,-9.82699311956294,,,,,,,,,,
acc,1778675413.0,158.0,0.11665425314804462,0.3310913441282491,-9.82813956034873,,,,,,,,,,
acc,1778675413.0,158.0,0.11353469704348695,0.33099336867262896,-9.829275576162866,,,,,,,,,,
acc,1778675413.0,158.0,0.1104435077619504,0.33089628412979155,-9.830401261930525,,,,,,,,,,
acc,1778675413.0,158.0,0.10738042701715719,0.3311196282921145,-9.830806624847975,,,,,,,,,,
acc,1778675413.0,158.0,0.10434519888377788,0.3310213969360681,-9.831208301798007,,,,,,,,,,
acc,1778675413.0,158.0,0.1013375697756023,0.33124360220343074,-9.831606326339791,,,,,,,,,,
acc,1778675413.0,158.0,0.09867682153971859,0.33146378700373297,-9.831681198610005,,,,,,,,,,
acc,1778675413.0,158.0,0.09604026667112311,0.33136242871522015,-9.831755390089638,,,,,,,,,,
acc,1778675413.0,158.0,0.09413775832633856,0.33126199203633655,-9.831793405578384,,,,,,,,,,
acc,1778675413.0,158.0,0.09225254852718527,0.33116246857734893,-9.831511536709034,,,,,,,,,,
acc,1778675413.0,158.0,0.09073950943783217,0.3310638500251665,-9.831196729557757,,,,,,,,,,
acc,1778675413.0,158.0,0.08959526485146403,0.33096612814263326,-9.830529747233339,,,,,,,,,,
acc,1778675413.0,158.0,0.08846142397541308,0.33086929476782795,-9.829868829251259,,,,,,,,,,
acc,1778675413.0,158.0,0.08765741734561606,0.3310928761348113,-9.829213920412618,,,,,,,,,,
acc,1778675414.0,159.0,0.08686072076552011,0.3309948914187755,-9.82831645226016,,,,,,,,,,
acc,1778675414.0,159.0,0.08642629141434141,0.33121732982175656,-9.827072111031097,,,,,,,,,,
acc,1778675414.0,159.0,0.08635084351110418,0.33111821460846086,-9.825839083167509,,,,,,,,,,
acc,1778675414.0,159.0,0.08663111214298026,0.33133953077648215,-9.824617265704806,,,,,,,,,,
acc,1778675414.0,159.0,0.08758337326062215,0.3312393055317043,-9.823726076806201,,,,,,,,,,
acc,1778675414.0,159.0,0.08852697680098758,0.3311399914947723,-9.82284299024068,,,,,,,,,,
acc,1778675414.0,159.0,0.09017204725722483,0.3310415803733308,-9.8220034413755,,,,,,,,,,
acc,1778675414.0,159.0,0.09144714436827504,0.33094406395070475,-9.821136016219121,,,,,,,,,,
acc,1778675414.0,159.0,0.09306566539086729,0.3308474340852028,-9.8199569606682,,,,,,,,,,
acc,1778675414.0,159.0,0.09466947197622709,0.3307516827094275,-9.818788624248299,,,,,,,,,,
acc,1778675414.0,159.0,0.09661372143306415,0.33097632562980983,-9.81763090942105,,,,,,,,,,
acc,1778675414.0,159.0,0.0985402954515558,0.3311989262906071,-9.816483719538004,,,,,,,,,,
acc,1778675414.0,159.0,0.10044935486093635,0.33109998117026757,-9.8157019803631,,,,,,,,,,
acc,1778675414.0,159.0,0.10269607054875789,0.331001935559392,-9.81489183955082,,,,,,,,,,
acc,1778675414.0,159.0,0.10492236151519035,0.33090478127370565,-9.813734053041717,,,,,,,,,,
acc,1778675414.0,159.0,0.10712841359232365,0.3308085102035839,-9.812941801543815,,,,,,,,,,
acc,1778675414.0,159.0,0.10931441091735551,0.33035810543980776,-9.812440762970635,,,,,,,,,,
acc,1778675414.0,159.0,0.1111255279267788,0.33026680320196067,-9.811695777220253,,,,,,,,,,
acc,1778675414.0,159.0,0.1129201806922008,0.33049584833358825,-9.810957563879995,,,,,,,,,,
acc,1778675414.0,159.0,0.11434350354740976,0.33040329467636814,-9.810226061337197,,,,,,,,,,
acc,1778675414.0,159.0,0.11575388764198613,0.3306310982875862,-9.809749708795065,,,,,,,,,,
acc,1778675414.0,159.0,0.11679644591861862,0.3305373158634054,-9.809313194268274,,,,,,,,,,
acc,1778675414.0,159.0,0.11782952691370181,0.33076390045337156,-9.809200153242536,,,,,,,,,,
acc,1778675414.0,159.0,0.11849820453001829,0.33066891150394284,-9.809088139799307,,,,,,,,,,
acc,1778675414.0,159.0,0.11916080367149502,0.33057478603180884,-9.808977144590996,,,,,,,,,,
acc,1778675414.0,159.0,0.11981737963105746,0.33048151618233707,-9.809257667535617,,,,,,,,,,
acc,1778675414.0,159.0,0.11979348345489763,0.33038909417248996,-9.809855143205988,,,,,,,,,,
acc,1778675414.0,159.0,0.11976980449794107,0.3302975122901683,-9.810092187445195,,,,,,,,,,
acc,1778675414.0,159.0,0.11903632339583362,0.3302067628935608,-9.81032707693569,,,,,,,,,,
acc,1778675414.0,159.0,0.11830950964932252,0.33011683841050005,-9.810559831276754,,,,,,,,,,
acc,1778675414.0,159.0,0.1172343043646197,0.3303472406681078,-9.810790469889053,,,,,,,,,,
acc,1778675414.0,159.0,0.11616887260309891,0.3302560398527811,-9.81137400960589,,,,,,,,,,
acc,1778675414.0,159.0,0.11511312547077045,0.3301656680404093,-9.811952245026403,,,,,,,,,,
acc,1778675414.0,159.0,0.11374747639122693,0.33007611769101214,-9.812525224394435,,,,,,,,,,
acc,1778675414.0,159.0,0.112394240741821,0.3299873813333078,-9.813447991194815,,,,,,,,,,
acc,1778675414.0,159.0,0.11069830146797204,0.3298994515640835,-9.814042872927105,,,,,,,,,,
acc,1778675414.0,159.0,0.10901777772492581,0.329457326582859,-9.814951844215733,,,,,,,,,,
acc,1778675414.0,159.0,0.10735252931353644,0.3293742142254336,-9.815178063118895,,,,,,,,,,
acc,1778675414.0,159.0,0.10534742401932348,0.3292918573244801,-9.815721721567924,,,,,,,,,,
acc,1778675414.0,159.0,0.10336054420267778,0.3292102490095759,-9.81626043841369,,,,,,,,,,
acc,1778675414.0,159.0,0.10174671627851536,0.3294488863244324,-9.816829755995096,,,,,,,,,,
acc,1778675414.0,159.0,0.10014755716321744,0.32936585120054485,-9.817038907180114,,,,,,,,,,
acc,1778675414.0,159.0,0.09856293345846324,0.3292835708168227,-9.817246157304561,,,,,,,,,,
acc,1778675414.0,159.0,0.09699271298086537,0.32920203830974387,-9.81745152365647,,,,,,,,,,
acc,1778675414.0,159.0,0.09579176386073364,0.3291212468782937,-9.817619526181794,,,,,,,,,,
acc,1778675414.0,159.0,0.09460173051245173,0.3290411897833931,-9.817786001683862,,,,,,,,,,
acc,1778675414.0,159.0,0.09342251367314554,0.3292813613609194,-9.818305953057795,,,,,,,,,,
acc,1778675414.0,159.0,0.0925735064661085,0.32951934996843696,-9.818146689397848,,,,,,,,,,
acc,1778675414.0,159.0,0.09173221603240021,0.329755175456344,-9.817988873312848,,,,,,,,,,
acc,1778675414.0,159.0,0.09089857220195621,0.32998885749429197,-9.817832491639725,,,,,,,,,,
acc,1778675414.0,159.0,0.09042749253453218,0.33022041557283816,-9.817677531335262,,,,,,,,,,
acc,1778675414.0,159.0,0.08996069454057093,0.33044986900508233,-9.817523979474995,,,,,,,,,,
acc,1778675414.0,159.0,0.08985313455825411,0.3310322231113858,-9.81772681852299,,,,,,,,,,
acc,1778675414.0,159.0,0.09010154701734013,0.33093480038981704,-9.817572819138595,,,,,,,,,,
acc,1778675414.0,159.0,0.09034770166508364,0.33083826313963965,-9.817029728339909,,,,,,,,,,
acc,1778675414.0,159.0,0.09059161903076883,0.3307426033096522,-9.816491573654805,,,,,,,,,,
acc,1778675414.0,159.0,0.09083331945679671,0.33064781292194545,-9.816348800382384,,,,,,,,,,
acc,1778675414.0,159.0,0.09142780715382423,0.33087338062457106,-9.815816835027956,,,,,,,,,,
acc,1778675414.0,159.0,0.09233637875411584,0.33109689817994914,-9.81564469735599,,,,,,,,,,
acc,1778675414.0,159.0,0.09323669252646105,0.331318384228383,-9.815154637462731,,,,,,,,,,
acc,1778675414.0,159.0,0.09412882355174687,0.33153785724050977,-9.814669031612356,,,,,,,,,,
acc,1778675414.0,159.0,0.09501284622748578,0.3314358403777928,-9.814187839308719,,,,,,,,,,
acc,1778675414.0,159.0,0.09624382547129251,0.33165424552096345,-9.813711020424254,,,,,,,,,,
acc,1778675414.0,159.0,0.09746361673205424,0.3315511711758381,-9.813238535196609,,,,,,,,,,
acc,1778675414.0,159.0,0.0986723217279829,0.3314490336381193,-9.812770344225312,,,,,,,,,,
acc,1778675414.0,159.0,0.09987004125157249,0.3313478243906774,-9.812625893209077,,,,,,,,,,
acc,1778675414.0,159.0,0.1010568751780487,0.33156702850864267,-9.812163270623637,,,,,,,,,,
acc,1778675414.0,159.0,0.10223292247374093,0.33146474716631297,-9.811704852618897,,,,,,,,,,
acc,1778675414.0,159.0,0.10304329211727305,0.3316828883177873,-9.811570084786343,,,,,,,,,,
acc,1778675414.0,159.0,0.10384629669621177,0.33157955428010816,-9.811436541794576,,,,,,,,,,
acc,1778675414.0,159.0,0.10464200316828039,0.33147715939379885,-9.81098472927936,,,,,,,,,,
acc,1778675414.0,159.0,0.1054304778819277,0.3313756951208594,-9.811246990194583,,,,,,,,,,
acc,1778675414.0,159.0,0.10589230392008872,0.33127515300097843,-9.811151879760924,,,,,,,,,,
acc,1778675414.0,159.0,0.10634993268596837,0.33082054624147833,-9.811412621228419,,,,,,,,,,
acc,1778675414.0,159.0,0.10680340233684509,0.3307250492401345,-9.811316005776252,,,,,,,,,,
acc,1778675414.0,159.0,0.10725275068282221,0.33063042015191074,-9.811220268402112,,,,,,,,,,
acc,1778675414.0,159.0,0.1073430376673468,0.3305366510867537,-9.81144489179897,,,,,,,,,,
acc,1778675414.0,159.0,0.10743250409339308,0.3304437342263947,-9.811667473742858,,,,,,,,,,
acc,1778675414.0,159.0,0.10716617137495543,0.33067115199086455,-9.811888032792014,,,,,,,,,,
acc,1778675414.0,159.0,0.1069022591663829,0.3305770129960716,-9.812106587335839,,,,,,,,,,
acc,1778675414.0,159.0,0.1066407454638543,0.3304837295621078,-9.812323155596431,,,,,,,,,,
acc,1778675414.0,159.0,0.10602662322762452,0.33039129391148825,-9.812537755630123,,,,,,,,,,
acc,1778675414.0,159.0,0.10541808227658464,0.3302996983374811,-9.812750405328979,,,,,,,,,,
acc,1778675414.0,159.0,0.10481507187467692,0.3302089352034625,-9.812961122422305,,,,,,,,,,
acc,1778675414.0,159.0,0.10386256636498256,0.33011899694227753,-9.813169924478125,,,,,,,,,,
acc,1778675414.0,159.0,0.10291871739053836,0.3300298760556068,-9.813057340377112,,,,,,,,,,
acc,1778675414.0,159.0,0.10198344626156526,0.32994156511333905,-9.812945779457822,,,,,,,,,,
acc,1778675414.0,159.0,0.10073719599524085,0.32985405675294943,-9.81283523241937,,,,,,,,,,
acc,1778675414.0,159.0,0.09982175059770443,0.3297673436788836,-9.81304517793198,,,,,,,,,,
acc,1778675414.0,159.0,0.09891462485991855,0.3296814186619472,-9.813253215438676,,,,,,,,,,
acc,1778675414.0,159.0,0.09769626476538089,0.3295962745387013,-9.813459362283233,,,,,,,,,,
acc,1778675414.0,159.0,0.09680845539993335,0.32951190421086285,-9.814018609401346,,,,,,,,,,
acc,1778675414.0,159.0,0.09592871448964266,0.32942830064471135,-9.814217800521156,,,,,,,,,,
acc,1778675414.0,159.0,0.09541194201373306,0.3293454568705003,-9.814415181385563,,,,,,,,,,
acc,1778675414.0,159.0,0.09454489286325665,0.3292633659818744,-9.814610768449421,,,,,,,,,,
acc,1778675414.0,159.0,0.09368572345596221,0.3295015076557953,-9.814485091497428,,,,,,,,,,
acc,1778675414.0,159.0,0.09283436216732684,0.32973748510176315,-9.814680043034908,,,,,,,,,,
acc,1778675414.0,159.0,0.0919907380242356,0.32997131799186624,-9.81455373669751,,,,,,,,,,
acc,1778675414.0,159.0,0.0915097530118893,0.33020302581928257,-9.814748064212816,,,,,,,,,,
acc,1778675414.0,159.0,0.09103313916238502,0.3304326278999097,-9.81462113987653,,,,,,,,,,
acc,1778675414.0,159.0,0.09091583776627427,0.3303406577276608,-9.81449536901913,,,,,,,,,,
acc,1778675414.0,159.0,0.09079960239481746,0.33024952337215663,-9.814370741156097,,,,,,,,,,
acc,1778675414.0,159.0,0.09068442335845114,0.33047870255468037,-9.814247245898253,,,,,,,,,,
acc,1778675414.0,159.0,0.09057029105572842,0.3303863138246769,-9.814124872950902,,,,,,,,,,
acc,1778675414.0,159.0,0.09081217627918227,0.33029476471142577,-9.814003612112968,,,,,,,,,,
acc,1778675414.0,159.0,0.09105186328441485,0.3302040475833865,-9.813883453276139,,,,,,,,,,
acc,1778675414.0,159.0,0.09093439208367389,0.3304336395757936,-9.813764386424024,,,,,,,,,,
acc,1778675414.0,159.0,0.09117296824452173,0.3306611450750181,-9.813255926574016,,,,,,,,,,
acc,1778675414.0,159.0,0.09176434682261549,0.3305670986421392,-9.813142562394056,,,,,,,,,,
acc,1778675414.0,159.0,0.09199538067176141,0.33047390688499345,-9.81263975374118,,,,,,,,,,
acc,1778675414.0,159.0,0.09222431493290943,0.33070104615543033,-9.812851473162802,,,,,,,,,,
acc,1778675414.0,159.0,0.09280613877543613,0.3306066372514412,-9.812741784542222,,,,,,,,,,
acc,1778675414.0,159.0,0.09338267513650228,0.33051308631388976,-9.812633092746635,,,,,,,,,,
acc,1778675414.0,159.0,0.09427344670077008,0.3304203855447034,-9.812489893554552,,,,,,,,,,
acc,1778675414.0,159.0,0.09483664866169311,0.33032852721671513,-9.812383490867422,,,,,,,,,,
acc,1778675414.0,159.0,0.09539473239152932,0.3302375036730183,-9.812278055139888,,,,,,,,,,
acc,1778675414.0,159.0,0.09594774440946179,0.3301473073263269,-9.812173577583334,,,,,,,,,,
acc,1778675414.0,159.0,0.09649573081170124,0.3300579306583417,-9.812070049489053,,,,,,,,,,
acc,1778675414.0,159.0,0.09735821127267348,0.3299693662191225,-9.812322440403593,,,,,,,,,,
acc,1778675414.0,159.0,0.09789337989652841,0.3298816066264655,-9.8122175596229,,,,,,,,,,
acc,1778675414.0,159.0,0.09842368507684376,0.32979464456528723,-9.812113631965639,,,,,,,,,,
acc,1778675414.0,159.0,0.0989491710163041,0.32970847278701326,-9.812010648769098,,,,,,,,,,
acc,1778675414.0,159.0,0.09946988151570459,0.329623084108973,-9.811908601449323,,,,,,,,,,
acc,1778675414.0,159.0,0.09998585997760878,0.3295384714137998,-9.81212696401065,,,,,,,,,,
acc,1778675414.0,159.0,0.10014218108025069,0.32945462764883676,-9.812343342170347,,,,,,,,,,
acc,1778675414.0,159.0,0.09994210429509699,0.32969102812030676,-9.812238271669186,,,,,,,,,,
acc,1778675414.0,159.0,0.10045379100984317,0.32992528027231516,-9.812453638199548,,,,,,,,,,
acc,1778675414.0,159.0,0.10060585973051131,0.3301574036300657,-9.81234756547398,,,,,,,,,,
acc,1778675415.0,160.0,0.10040156955466417,0.33038741754124934,-9.812242456695982,,,,,,,,,,
acc,1778675415.0,160.0,0.10019913588653351,0.3302958592909623,-9.812812752749094,,,,,,,,,,
acc,1778675415.0,160.0,0.09999854185321824,0.33020513308480315,-9.813022898534248,,,,,,,,,,
acc,1778675415.0,160.0,0.09979977073521282,0.3301152313607459,-9.813231134601736,,,,,,,,,,
acc,1778675415.0,160.0,0.0992478294389678,0.33002614662551205,-9.81311799670834,,,,,,,,,,
acc,1778675415.0,160.0,0.09870090394726662,0.32993787145394526,-9.813005886963344,,,,,,,,,,
acc,1778675415.0,160.0,0.09748450910923477,0.330169879905185,-9.812894796022501,,,,,,,,,,
acc,1778675415.0,160.0,0.09627916832426599,0.3303997799672316,-9.812784714626519,,,,,,,,,,
acc,1778675415.0,160.0,0.09508478112899758,0.3303081095613945,-9.81203668929378,,,,,,,,,,
acc,1778675415.0,160.0,0.09354627194159908,0.3305367533686668,-9.811898910928056,,,,,,,,,,
acc,1778675415.0,160.0,0.09237671994273607,0.3307633193681936,-9.8104134978718,,,,,,,,,,
acc,1778675415.0,160.0,0.09086282042955161,0.3303133786967681,-9.809687021006418,,,,,,,,,,
acc,1778675415.0,160.0,0.08900771183527477,0.33054197444449046,-9.808612170255868,,,,,,,,,,
acc,1778675415.0,160.0,0.08645951931154344,0.3304490119990137,-9.807511592381987,,,,,,,,,,
acc,1778675415.0,160.0,0.08290506067372949,0.3300019278567453,-9.80745042974884,,,,,,,,,,
acc,1778675415.0,160.0,0.07835348968008071,0.3299138729981967,-9.805650467540003,,,,,,,,,,
acc,1778675415.0,160.0,0.07348831472014769,0.32982661833733196,-9.805215747224262,,,,,,,,,,
acc,1778675415.0,160.0,0.0679574103892279,0.3297401566018055,-9.80453650468811,,,,,,,,,,
acc,1778675415.0,160.0,0.06109238000890805,0.32997396103492116,-9.803508459505226,,,,,,,,,,
acc,1778675415.0,160.0,0.05148546518663052,0.329531194317228,-9.802454261863064,,,,,,,,,,
acc,1778675415.0,160.0,0.03990702824181033,0.32873748522322793,-9.801090172984992,,,,,,,,,,
acc,1778675415.0,160.0,0.026694456840917574,0.3279509889285956,-9.801406843693693,,,,,,,,,,
acc,1778675415.0,160.0,0.011152651527799198,0.3268166649435474,-9.80101068679359,,,,,,,,,,
acc,1778675415.0,160.0,-0.0059872707408748,0.32604762393424247,-9.800618129948761,,,,,,,,,,
acc,1778675415.0,160.0,-0.025420727400060433,0.32493059674794916,-9.799980668082592,,,,,,,,,,
acc,1778675415.0,160.0,-0.04677191006959297,0.32346874575402373,-9.798994024389165,,,,,,,,,,
acc,1778675415.0,160.0,-0.06998788741240304,0.32202017923096454,-9.799329742968986,,,,,,,,,,
acc,1778675415.0,160.0,-0.09544219136284554,0.3209397510326941,-9.799662410730974,,,,,,,,,,
acc,1778675415.0,160.0,-0.12240453192912065,0.31986914114035314,-9.799672575610384,,,,,,,,,,
acc,1778675415.0,160.0,-0.1508612047617246,0.3184532858755157,-9.799682648117306,,,,,,,,,,
acc,1778675415.0,160.0,-0.18079863006689012,0.3170502970692032,-9.800367074061512,,,,,,,,,,
acc,1778675415.0,160.0,-0.21220336056124567,0.3153405872637013,-9.799696390651043,,,,,,,,,,
acc,1778675415.0,160.0,-0.24612695760651013,0.31364641427692613,-9.800771160428344,,,,,,,,,,
acc,1778675415.0,160.0,-0.28215608021189176,0.31196763691150237,-9.802510607960123,,,,,,,,,,
acc,1778675415.0,160.0,-0.3182127571194484,0.3099491502039715,-9.803524300177529,,,,,,,,,,
acc,1778675415.0,160.0,-0.355326156502341,0.3083039712566079,-9.805593693726522,,,,,,,,,,
acc,1778675415.0,160.0,-0.39281223117936825,0.3066737426796672,-9.806259898677956,,,,,,,,,,
acc,1778675415.0,160.0,-0.4334363514799156,0.3047033637313138,-9.807949467702135,,,,,,,,,,
acc,1778675415.0,160.0,-0.4744012439407552,0.3027508903528945,-9.811079055095057,,,,,,,,,,
acc,1778675415.0,160.0,-0.5167332206219538,0.3004611859705772,-9.812050386927332,,,,,,,,,,
acc,1778675415.0,160.0,-0.5586805111677154,0.2985472627651702,-9.815426682834067,,,,,,,,,,
acc,1778675415.0,160.0,-0.6012760290297636,0.29665073207118264,-9.816677976568318,,,,,,,,,,
acc,1778675415.0,160.0,-0.6434844662089694,0.29477143582891463,-9.819018305979831,,,,,,,,,,
acc,1778675415.0,160.0,-0.6866937221621588,0.29290921741528847,-9.820272456157815,,,,,,,,,,
acc,1778675415.0,160.0,-0.7305752231108127,0.29141888613357814,-9.82293508562069,,,,,,,,,,
acc,1778675415.0,160.0,-0.7757973035158077,0.2895871335536208,-9.824828086227944,,,,,,,,,,
acc,1778675415.0,160.0,-0.8206084354249069,0.2884464609220258,-9.827058848896817,,,,,,,,,,
acc,1778675415.0,160.0,-0.8660417609737272,0.28699668422913593,-9.829304843576848,,,,,,,,,,
acc,1778675415.0,160.0,-0.9103877846945874,0.28556008214180434,-9.830430022432507,,,,,,,,,,
acc,1778675415.0,160.0,-0.9546502910836919,0.283781570668203,-9.832609878296905,,,,,,,,,,
acc,1778675415.0,160.0,-0.9999304446424431,0.2823741853300888,-9.833350050044771,,,,,,,,,,
acc,1778675415.0,160.0,-1.045118592355687,0.28062462518302195,-9.834793442137325,,,,,,,,,,
acc,1778675415.0,160.0,-1.0898961008872863,0.2795653975177989,-9.83693364592709,,,,,,,,,,
acc,1778675415.0,160.0,-1.1342667019951844,0.27887076856678134,-9.838379967419172,,,,,,,,,,
acc,1778675415.0,160.0,-1.1785890666548187,0.27782747879260516,-9.840168109781096,,,,,,,,,,
acc,1778675415.0,160.0,-1.2225086602127413,0.2771486428102111,-9.842649939837244,,,,,,,,,,
acc,1778675415.0,160.0,-1.2660291429126282,0.27612100256623956,-9.844044315755594,,,,,,,,,,
acc,1778675415.0,160.0,-1.3091541417314196,0.27407329451174406,-9.846490921420875,,,,,,,,,,
acc,1778675415.0,160.0,-1.3518872506817703,0.2727541314593748,-9.849554241761707,,,,,,,,,,
acc,1778675415.0,160.0,-1.3932026250451892,0.27176642531702605,-9.851915282578332,,,,,,,,,,
acc,1778675415.0,160.0,-1.4337875814873975,0.27046822550473926,-9.854290362482665,,,,,,,,,,
acc,1778675415.0,160.0,-1.4743587034082803,0.2695012920287848,-9.857282806856654,,,,,,,,,,
acc,1778675415.0,160.0,-1.5145611437783166,0.2678687124375027,-9.860212563464389,,,,,,,,,,
acc,1778675415.0,160.0,-1.555072685877147,0.2662509685659296,-9.862831721935159,,,,,,,,,,
acc,1778675415.0,160.0,-1.595571060820522,0.26464792559324235,-9.865746548486145,,,,,,,,,,
acc,1778675415.0,160.0,-1.6360563792482516,0.26305944992393127,-9.867995939924075,,,,,,,,,,
acc,1778675415.0,160.0,-1.6768837325676444,0.2621598418339799,-9.870828343173184,,,,,,,,,,
acc,1778675415.0,160.0,-1.7169851128627285,0.2605939761371486,-9.872996060447715,,,,,,,,,,
acc,1778675415.0,160.0,-1.7581064586951545,0.25939730342572154,-9.874469637460903,,,,,,,,,,
acc,1778675415.0,160.0,-1.7992090871863897,0.2582115052044037,-9.87699473236147,,,,,,,,,,
acc,1778675415.0,160.0,-1.8392282689932857,0.2563265466210851,-9.878396477926671,,,,,,,,,,
acc,1778675415.0,160.0,-1.8788837858127154,0.2548136896873348,-9.880530915950724,,,,,,,,,,
acc,1778675415.0,160.0,-1.917823969960594,0.25331458048483424,-9.88158105845324,,,,,,,,,,
acc,1778675415.0,160.0,-1.9574752027579527,0.25182909408087084,-9.882621658035385,,,,,,,,,,
acc,1778675415.0,160.0,-1.996766114491795,0.25071207002988116,-9.883297828979618,,,,,,,,,,
acc,1778675415.0,160.0,-2.0353450162571063,0.25027963788309066,-9.883932360869261,,,,,,,,,,
acc,1778675415.0,160.0,-2.0739283049741966,0.24917669419240102,-9.883531722144891,,,,,,,,,,
acc,1778675415.0,160.0,-2.1114510419425163,0.24808377323065195,-9.884199623016176,,,,,,,,,,
acc,1778675415.0,160.0,-2.1486328003656885,0.2462908483481506,-9.883761061188794,,,,,,,,,,
acc,1778675415.0,160.0,-2.185831651179184,0.24451421622116187,-9.883681447896134,,,,,,,,,,
acc,1778675415.0,160.0,-2.222692466834128,0.2427537287897646,-9.882537650330903,,,,,,,,,,
acc,1778675415.0,160.0,-2.2588633469631834,0.2410092393396245,-9.8821141912339,,,,,,,,,,
acc,1778675415.0,160.0,-2.29470553349976,0.23857066712809288,-9.880736165202743,,,,,,,,,,
acc,1778675415.0,160.0,-2.330222013431088,0.2361542548111832,-9.879370661626936,,,,,,,,,,
acc,1778675415.0,160.0,-2.3657707187739616,0.23446973627591036,-9.878656503903233,,,,,,,,,,
acc,1778675415.0,160.0,-2.4006414124266415,0.23315549751285322,-9.876599963533222,,,,,,,,,,
acc,1778675415.0,160.0,-2.4355501999858102,0.2311432663779952,-9.875556020668245,,,,,,,,,,
acc,1778675415.0,160.0,-2.4697867911114044,0.22950428387698535,-9.87313718859357,,,,,,,,,,
acc,1778675415.0,160.0,-2.503357294292127,0.22717026011229416,-9.87184073865193,,,,,,,,,,
acc,1778675415.0,160.0,-2.5363032660707177,0.22453797766640346,-9.870165603309324,,,,,,,,,,
acc,1778675415.0,160.0,-2.5692693187314353,0.22157465242212354,-9.868896156822117,,,,,,,,,,
acc,1778675415.0,160.0,-2.6019358013750242,0.21899321851880424,-9.867886716500367,,,,,,,,,,
acc,1778675415.0,160.0,-2.633985967879231,0.2174646460308168,-9.866602475228138,,,,,,,,,,
acc,1778675415.0,160.0,-2.665744887335158,0.215949964023715,-9.864974941255158,,,,,,,,,,
acc,1778675415.0,160.0,-2.697215206419712,0.21341964304475078,-9.863362197045717,,,,,,,,,,
acc,1778675415.0,160.0,-2.7283995477570593,0.21091231565194404,-9.862119071048564,,,,,,,,,,
acc,1778675415.0,160.0,-2.758945547307612,0.20874724125782027,-9.860887241610312,,,,,,,,,,
acc,1778675415.0,160.0,-2.7888589968005375,0.206956813264609,-9.858246736658373,,,,,,,,,,
acc,1778675415.0,160.0,-2.819210550968064,0.20589258994915646,-9.857724536097335,,,,,,,,,,
acc,1778675415.0,160.0,-2.8492862940307413,0.20448306559950105,-9.856852118111837,,,,,,,,,,
acc,1778675415.0,160.0,-2.8787337696303537,0.2030863498989863,-9.85463874769595,,,,,,,,,,
acc,1778675415.0,160.0,-2.907913649763466,0.2009923918886101,-9.85379437085889,,,,,,,,,,
acc,1778675415.0,160.0,-2.9364733943591634,0.19962739664393964,-9.851573292452434,,,,,,,,,,
acc,1778675415.0,160.0,-2.9644186478621735,0.19862977718746144,-9.850721268444483,,,,,,,,,,
acc,1778675415.0,160.0,-2.992464919707405,0.19831565422798023,-9.849273544937619,,,,,,,,,,
acc,1778675415.0,160.0,-3.020966263696263,0.19732995487924457,-9.848832885391088,,,,,,,,,,
acc,1778675415.0,160.0,-3.0488536474499783,0.19564327838953682,-9.848005764020147,,,,,,,,,,
acc,1778675415.0,160.0,-3.076132641114803,0.1946818634364136,-9.846902185125566,,,,,,,,,,
acc,1778675415.0,160.0,-3.103163745013676,0.19372918505659073,-9.84644758011827,,,,,,,,,,
acc,1778675415.0,160.0,-3.1299492118034973,0.19172025786414873,-9.846032600641848,,,,,,,,,,
acc,1778675415.0,160.0,-3.157201207939636,0.18972958619712882,-9.845976363845958,,,,,,,,,,
acc,1778675415.0,160.0,-3.184205559737372,0.18846693840200116,-9.846275600661691,,,,,,,,,,
acc,1778675415.0,160.0,-3.2102545834094207,0.1872157645384543,-9.845862184041657,,,,,,,,,,
acc,1778675415.0,160.0,-3.2364218660875195,0.1859759603392068,-9.846162458402983,,,,,,,,,,
acc,1778675415.0,160.0,-3.2627063240559435,0.18474742248452478,-9.8468149757331,,,,,,,,,,
acc,1778675415.0,160.0,-3.2890713980994826,0.18353004859360972,-9.846396657776157,,,,,,,,,,
acc,1778675415.0,160.0,-3.3155518591799193,0.1830336713163024,-9.846337112749566,,,,,,,,,,
acc,1778675415.0,160.0,-3.340407313470802,0.18286127277674802,-9.846597576881534,,,,,,,,,,
acc,1778675415.0,160.0,-3.3643269674162295,0.18166103875858491,-9.846145740078132,,,,,,,,,,
acc,1778675415.0,160.0,-3.388739192907542,0.1804717114967991,-9.846407943224381,,,,,,,,,,
acc,1778675415.0,160.0,-3.4143139534203324,0.1792931918784492,-9.845993324111767,,,,,,,,,,
acc,1778675415.0,160.0,-3.4393013397061676,0.17777041924871248,-9.845937444251367,,,,,,,,,,
acc,1778675415.0,160.0,-3.46338723046385,0.17626148434111916,-9.846201540186659,,,,,,,,,,
acc,1778675415.0,160.0,-3.486544314286497,0.175831157751207,-9.84646323623261,,,,,,,,,,
acc,1778675415.0,160.0,-3.5102008992633493,0.17607918109713477,-9.846403086214048,,,,,,,,,,
acc,1778675415.0,160.0,-3.5346719143055374,0.176324950608804,-9.846662950763228,,,,,,,,,,
acc,1778675415.0,160.0,-3.558246117271003,0.1762135152960843,-9.847310919767507,,,,,,,,,,
acc,1778675416.0,161.0,-3.581606097111805,0.17610309261657744,-9.846852600844441,,,,,,,,,,
acc,1778675416.0,161.0,-3.605073268476084,0.17531924306240054,-9.84678891261772,,,,,,,,,,
acc,1778675416.0,161.0,-3.627652759085123,0.17592688965536593,-9.846335337281005,,,,,,,,,,
acc,1778675416.0,161.0,-3.650027065759845,0.1768839767945074,-9.846986283280355,,,,,,,,,,
acc,1778675416.0,161.0,-3.672553015392676,0.1764479936273466,-9.846885885850991,,,,,,,,,,
acc,1778675416.0,161.0,-3.695548706977474,0.1770453830399077,-9.847496325392814,,,,,,,,,,
acc,1778675416.0,161.0,-3.7183354325879905,0.17763734386772018,-9.84739129313917,,,,,,,,,,
acc,1778675416.0,161.0,-3.7402406518758244,0.17857888774295683,-9.848387605735825,,,,,,,,,,
acc,1778675416.0,161.0,-3.761591852247809,0.17915691334986128,-9.848664930992229,,,,,,,,,,
acc,1778675416.0,161.0,-3.7831039927618315,0.18008464861795548,-9.850004641166038,,,,,,,,,,
acc,1778675416.0,161.0,-3.8044206486593803,0.181003953391978,-9.850267272163595,,,,,,,,,,
acc,1778675416.0,161.0,-3.8255435963585915,0.18191490428196005,-9.850527516587125,,,,,,,,,,
acc,1778675416.0,161.0,-3.84576466253697,0.18349201639112206,-9.851850301063797,,,,,,,,,,
acc,1778675416.0,161.0,-3.866511909940935,0.1847353200811573,-9.851705703599977,,,,,,,,,,
acc,1778675416.0,161.0,-3.8863606899407386,0.1856123634166965,-9.85333724948216,,,,,,,,,,
acc,1778675416.0,161.0,-3.906029100641607,0.18715587604825976,-9.853214634308355,,,,,,,,,,
acc,1778675416.0,161.0,-3.926228714632766,0.18868536251440307,-9.853767563397547,,,,,,,,,,
acc,1778675416.0,161.0,-3.945889809048264,0.18952651116474264,-9.85541586714269,,,,,,,,,,
acc,1778675416.0,161.0,-3.964662306235753,0.19000505394813383,-9.855629325474546,,,,,,,,,,
acc,1778675416.0,161.0,-3.9829092432547037,0.1911891725263565,-9.8576156823224,,,,,,,,,,
acc,1778675416.0,161.0,-4.0017003007219145,0.1916526064383927,-9.858483589663017,,,,,,,,,,
acc,1778675416.0,161.0,-4.020320600666812,0.1921118290479669,-9.859698581451923,,,,,,,,,,
acc,1778675416.0,161.0,-4.0387716948026,0.19256687862416114,-9.860902532405326,,,,,,,,,,
acc,1778675416.0,161.0,-4.057055120741414,0.19301779308829034,-9.861385600344526,,,,,,,,,,
acc,1778675416.0,161.0,-4.075172402122475,0.1941745343378226,-9.862254744210485,,,,,,,,,,
acc,1778675416.0,161.0,-4.093125048739073,0.19496580193287572,-9.863080495622937,,,,,,,,,,
acc,1778675416.0,161.0,-4.111269527898052,0.19539491700093725,-9.863579275545423,,,,,,,,,,
acc,1778675416.0,161.0,-4.129249125160971,0.19720449587872135,-9.863718551744999,,,,,,,,,,
acc,1778675416.0,161.0,-4.14671036762597,0.19832319185606628,-9.865276429025496,,,,,,,,,,
acc,1778675416.0,161.0,-4.165042337969794,0.19872179780513716,-9.865009826415323,,,,,,,,,,
acc,1778675416.0,161.0,-4.182888254956123,0.199471743676572,-9.866201007516763,,,,,,,,,,
acc,1778675416.0,161.0,-4.199862069851073,0.1995049413517395,-9.86592600313596,,,,,,,,,,
acc,1778675416.0,161.0,-4.217391574215374,0.1988633984448111,-9.865653497764967,,,,,,,,,,
acc,1778675416.0,161.0,-4.2344068230116205,0.19890212424084922,-9.866128896378129,,,,,,,,,,
acc,1778675416.0,161.0,-4.250557518194887,0.19791109714685984,-9.865144604929924,,,,,,,,,,
acc,1778675416.0,161.0,-4.26656144939058,0.1979584766423716,-9.863885284590971,,,,,,,,,,
acc,1778675416.0,161.0,-4.2831298835296145,0.19907032093263377,-9.862672911377844,,,,,,,,,,
acc,1778675416.0,161.0,-4.299902719712609,0.2008465005683758,-9.860406650785578,,,,,,,,,,
acc,1778675416.0,161.0,-4.3161681763606525,0.20331647300726025,-9.859864823828099,,,,,,,,,,
acc,1778675416.0,161.0,-4.331575892970666,0.20540903834242566,-9.856914147582621,,,,,,,,,,
acc,1778675416.0,161.0,-4.345814196307513,0.20819252141321565,-9.855729618701895,,,,,,,,,,
acc,1778675416.0,161.0,-4.360278075965158,0.2095308441259892,-9.852426063307199,,,,,,,,,,
acc,1778675416.0,161.0,-4.376349854090686,0.2105375285356953,-9.84950748989865,,,,,,,,,,
acc,1778675416.0,161.0,-4.392950024208131,0.21047016981616787,-9.845550533715302,,,,,,,,,,
acc,1778675416.0,161.0,-4.408014973992499,0.20866408919842894,-9.842729933707192,,,,,,,,,,
acc,1778675416.0,161.0,-4.422588064158421,0.20651944959660773,-9.840644898098898,,,,,,,,,,
acc,1778675416.0,161.0,-4.437383688386964,0.20371986899428787,-9.838543315152355,,,,,,,,,,
acc,1778675416.0,161.0,-4.45239983356382,0.1992063856070431,-9.836105858506045,,,,,,,,,,
acc,1778675416.0,161.0,-4.468308925442483,0.19682822196738364,-9.83479095003958,,,,,,,,,,
acc,1778675416.0,161.0,-4.4840734489100385,0.19411670705483383,-9.832742562843682,,,,,,,,,,
acc,1778675416.0,161.0,-4.499339746586425,0.19142983210229952,-9.831813188263252,,,,,,,,,,
acc,1778675416.0,161.0,-4.514147849407516,0.1894418028377337,-9.83117623229734,,,,,,,,,,
acc,1778675416.0,161.0,-4.528821388692605,0.18747183910463733,-9.829551158112025,,,,,,,,,,
acc,1778675416.0,161.0,-4.543681054864882,0.1834609753212996,-9.828899254084169,,,,,,,,,,
acc,1778675416.0,161.0,-4.559470593112404,0.1794865588790781,-9.827259376782301,,,,,,,,,,
acc,1778675416.0,161.0,-4.574761687389383,0.17693263033906367,-9.826379828754554,,,,,,,,,,
acc,1778675416.0,161.0,-4.589203886978543,0.17404693866579898,-9.826111714149445,,,,,,,,,,
acc,1778675416.0,161.0,-4.602840418484571,0.17221687037939606,-9.82485212966233,,,,,,,,,,
acc,1778675416.0,161.0,-4.616707994712438,0.1700839646043242,-9.823958953194655,,,,,,,,,,
acc,1778675416.0,161.0,-4.632188887828126,0.16864487953367394,-9.823357866375678,,,,,,,,,,
acc,1778675416.0,161.0,-4.647529103695491,0.16792880468470778,-9.821768344562757,,,,,,,,,,
acc,1778675416.0,161.0,-4.659925692029956,0.16721923691743748,-9.821897106244524,,,,,,,,,,
acc,1778675416.0,161.0,-4.671535192031787,0.16545121302617885,-9.820675820566299,,,,,,,,,,
acc,1778675416.0,161.0,-4.684423566385997,0.16405422648795032,-9.820814510166826,,,,,,,,,,
acc,1778675416.0,161.0,-4.6978692516624525,0.16547416314065738,-9.821697366859256,,,,,,,,,,
acc,1778675416.0,161.0,-4.711192753954365,0.1668811966133092,-9.822572200898813,,,,,,,,,,
acc,1778675416.0,161.0,-4.7254600875942865,0.16756552025308724,-9.824858951175745,,,,,,,,,,
acc,1778675416.0,161.0,-4.7385328677894,0.1689535492401817,-9.82570505543276,,,,,,,,,,
acc,1778675416.0,161.0,-4.750102491158182,0.16890909903689486,-9.8279278335093,,,,,,,,,,
acc,1778675416.0,161.0,-4.761921941557104,0.17060439536175284,-9.828391079350734,,,,,,,,,,
acc,1778675416.0,161.0,-4.774343919797639,0.17370415220981109,-9.830234487167116,,,,,,,,,,
acc,1778675416.0,161.0,-4.786298055715768,0.1778051416243777,-9.833161542022435,,,,,,,,,,
acc,1778675416.0,161.0,-4.798143562605293,0.1829337687100064,-9.833932199422092,,,,,,,,,,
acc,1778675416.0,161.0,-4.8105558570846645,0.18730584915464935,-9.837429093329453,,,,,,,,,,
acc,1778675416.0,161.0,-4.822535891632027,0.1926676094346294,-9.838160970873169,,,,,,,,,,
acc,1778675416.0,161.0,-4.833697128875013,0.19766117904640493,-9.840625531164992,,,,,,,,,,
acc,1778675416.0,161.0,-4.84578634277034,0.2011895054784883,-9.842748228081147,,,,,,,,,,
acc,1778675416.0,161.0,-4.857765700176361,0.20504073140263623,-9.84584554183321,,,,,,,,,,
acc,1778675416.0,161.0,-4.870701103305548,0.20711762727438313,-9.847920803742147,,,,,,,,,,
acc,1778675416.0,161.0,-4.883873922418165,0.20779127862353514,-9.848912303517656,,,,,,,,,,
acc,1778675416.0,161.0,-4.896572076254662,0.20739390449066633,-9.849859299013628,,,,,,,,,,
acc,1778675416.0,161.0,-4.909509801994111,0.20561577900147343,-9.850442718023828,,,,,,,,,,
acc,1778675416.0,161.0,-4.92335937022733,0.2028244111652502,-9.851375806413849,,,,,,,,,,
acc,1778675416.0,161.0,-4.938147980188036,0.2000584089014786,-9.854394720011232,,,,,,,,,,
acc,1778675416.0,161.0,-4.953121680482213,0.1979919711417371,-9.853907524576467,,,,,,,,,,
acc,1778675416.0,161.0,-4.967639835937252,0.19491491099086972,-9.85519959312236,,,,,,,,,,
acc,1778675416.0,161.0,-4.9799317584957645,0.19012647924627718,-9.855769987567433,,,,,,,,,,
acc,1778675416.0,161.0,-4.992466953527571,0.18886022724938614,-9.855589771503048,,,,,,,,,,
acc,1778675416.0,161.0,-5.0069470492787955,0.1879604528514326,-9.855446687460482,,,,,,,,,,
acc,1778675416.0,161.0,-5.021650524164788,0.18600395098668684,-9.854310997625323,,,,,,,,,,
acc,1778675416.0,161.0,-5.034126082191122,0.18651450334427178,-9.853185627970305,,,,,,,,,,
acc,1778675416.0,161.0,-5.045813834503046,0.18631047428887865,-9.852034981255812,,,,,,,,,,
acc,1778675416.0,161.0,-5.0573953784988435,0.18646327024776171,-9.849865390264673,,,,,,,,,,
acc,1778675416.0,161.0,-5.069226650281207,0.18625970675706294,-9.848034991263585,,,,,,,,,,
acc,1778675416.0,161.0,-5.080950409568684,0.18328925950763394,-9.844836854037064,,,,,,,,,,
acc,1778675416.0,161.0,-5.0904733291781685,0.18105573799151467,-9.843087644441606,,,,,,,,,,
acc,1778675416.0,161.0,-5.098170379438179,0.17916198031805508,-9.840999359204218,,,,,,,,,,
acc,1778675416.0,161.0,-5.105442523606104,0.17696596399098516,-9.838184623310651,,,,,,,,,,
acc,1778675416.0,161.0,-5.111938642820443,0.174434941310118,-9.836495863496786,,,,,,,,,,
acc,1778675416.0,161.0,-5.117346330522452,0.171571947441245,-9.83649079411296,,,,,,,,,,
acc,1778675416.0,161.0,-5.123379316238759,0.16770556968566414,-9.834426961052797,,,,,,,,,,
acc,1778675416.0,161.0,-5.129357479338667,0.16351935531019485,-9.834121215489434,,,,,,,,,,
acc,1778675416.0,161.0,-5.135991250824351,0.1604005819891499,-9.831723944188617,,,,,,,,,,
acc,1778675416.0,161.0,-5.141535339955167,0.1569551875479857,-9.831087799456105,,,,,,,,,,
acc,1778675416.0,161.0,-5.147029049145954,0.15460600566859056,-9.829782997018079,,,,,,,,,,
acc,1778675416.0,161.0,-5.153502236510474,0.15437246611977645,-9.827425147749274,,,,,,,,,,
acc,1778675416.0,161.0,-5.159561630139347,0.15517045816435193,-9.827147534281732,,,,,,,,,,
acc,1778675416.0,161.0,-5.1634716662273,0.15525125684886737,-9.829357203798459,,,,,,,,,,
acc,1778675416.0,161.0,-5.1701504080892065,0.157070663481843,-9.828068127548452,,,,,,,,,,
acc,1778675416.0,161.0,-5.177123421117024,0.1602934025005437,-9.831618308346167,,,,,,,,,,
acc,1778675416.0,161.0,-5.182968165635605,0.16625558938275925,-9.829953723280031,,,,,,,,,,
acc,1778675416.0,161.0,-5.188085368782909,0.17738160530874733,-9.831782930675452,,,,,,,,,,
acc,1778675416.0,161.0,-5.195214871714888,0.18840651752887053,-9.83466041952776,,,,,,,,,,
acc,1778675416.0,161.0,-5.2043738918214775,0.1986568063693582,-9.836127389020307,,,,,,,,,,
acc,1778675416.0,161.0,-5.215543986581475,0.20427037954868962,-9.83651612423149,,,,,,,,,,
acc,1778675416.0,161.0,-5.225938138674802,0.2084485701888655,-9.841764364227773,,,,,,,,,,
acc,1778675416.0,161.0,-5.236237837618505,0.21155939275519597,-9.844551150356056,,,,,,,,,,
acc,1778675416.0,161.0,-5.246763409200205,0.21496142339578975,-9.849726374909878,,,,,,,,,,
acc,1778675416.0,161.0,-5.256518895000421,0.2169481681177386,-9.851411399779742,,,,,,,,,,
acc,1778675416.0,161.0,-5.267570102480507,0.22030123018073205,-9.85478495123708,,,,,,,,,,
acc,1778675416.0,161.0,-5.279230818826989,0.22397878433005794,-9.856778979034328,,,,,,,,,,
acc,1778675416.0,161.0,-5.288691268648055,0.22311484468561052,-9.854530784588484,,,,,,,,,,
acc,1778675416.0,161.0,-5.295616484249671,0.22190379394592913,-9.852338514172827,,,,,,,,,,
acc,1778675416.0,161.0,-5.3017688366683515,0.21687011128776512,-9.850166165231133,,,,,,,,,,
acc,1778675416.0,161.0,-5.30719085247821,0.2115271994985402,-9.848333033290697,,,,,,,,,,
acc,1778675416.0,161.0,-5.312918559492632,0.2069427722663197,-9.84406728445632,,,,,,,,,,
acc,1778675416.0,161.0,-5.318239256184402,0.20240000437705985,-9.841615135518033,,,,,,,,,,
acc,1778675416.0,161.0,-5.323156632028667,0.19857295565221808,-9.83772990064903,,,,,,,,,,
acc,1778675416.0,161.0,-5.32767435206083,0.194106245479178,-9.833241036530445,,,,,,,,,,
acc,1778675416.0,161.0,-5.331476589633918,0.1875858210585004,-9.829431898287543,,,,,,,,,,
acc,1778675417.0,162.0,-5.3359187050271935,0.18357392344891305,-9.822924135425584,,,,,,,,,,
acc,1778675417.0,162.0,-5.3420597963247385,0.18062788272907934,-9.821338555638516,,,,,,,,,,
acc,1778675417.0,162.0,-5.347470644277863,0.17596928015380126,-9.81905744241107,,,,,,,,,,
acc,1778675417.0,162.0,-5.350383057407802,0.17238241116169642,-9.818855867471983,,,,,,,,,,
acc,1778675417.0,162.0,-5.356392709073486,0.1688281365565277,-9.815212952766016,,,,,,,,,,
acc,1778675417.0,162.0,-5.363412644743538,0.16740046399120326,-9.815756245975873,,,,,,,,,,
acc,1778675417.0,162.0,-5.370013827440653,0.1670506594462938,-9.817359505848204,,,,,,,,,,
acc,1778675417.0,162.0,-5.377939395356211,0.16563913906984723,-9.818628720126265,,,,,,,,,,
acc,1778675417.0,162.0,-5.387532275433087,0.16495037810929375,-9.821661237244617,,,,,,,,,,
acc,1778675417.0,162.0,-5.394588708922604,0.16426787601697232,-9.823246331993518,,,,,,,,,,
acc,1778675417.0,162.0,-5.400551619421254,0.1642660051930085,-9.824426557490735,,,,,,,,,,
acc,1778675417.0,162.0,-5.4078447151962425,0.16358972209569478,-9.824566657932074,,,,,,,,,,
acc,1778675417.0,162.0,-5.41681087048162,0.16291958447837318,-9.826125350708447,,,,,,,,,,
acc,1778675417.0,162.0,-5.425021110690704,0.1608711654162014,-9.830083650678853,,,,,,,,,,
acc,1778675417.0,162.0,-5.4338311816451,0.1584863988103128,-9.837484646806134,,,,,,,,,,
acc,1778675417.0,162.0,-5.445010459851135,0.16169627248704388,-9.840345817452008,,,,,,,,,,
acc,1778675417.0,162.0,-5.455733188565256,0.1690300817144967,-9.848008530715548,,,,,,,,,,
acc,1778675417.0,162.0,-5.466358478332825,0.17977591334873733,-9.850738574991711,,,,,,,,,,
acc,1778675417.0,162.0,-5.478981518375302,0.1911340378991423,-9.85482817294888,,,,,,,,,,
acc,1778675417.0,162.0,-5.489395547300768,0.19788087457350137,-9.858880608153694,,,,,,,,,,
acc,1778675417.0,162.0,-5.4973011712605935,0.19342045367842656,-9.856613316083967,,,,,,,,,,
acc,1778675417.0,162.0,-5.504779984804788,0.18342759575246464,-9.859904102355479,,,,,,,,,,
acc,1778675417.0,162.0,-5.512545808216649,0.17490991538551828,-9.857308042213722,,,,,,,,,,
acc,1778675417.0,162.0,-5.519886091602312,0.1730720060128669,-9.85963410397309,,,,,,,,,,
acc,1778675417.0,162.0,-5.526449749182507,0.1754394054905096,-9.86083863960331,,,,,,,,,,
acc,1778675417.0,162.0,-5.530504487237435,0.176755882839264,-9.861677258553103,,,,,,,,,,
acc,1778675417.0,162.0,-5.5327830464665,0.1804741774526072,-9.864922028046712,,,,,,,,,,
acc,1778675417.0,162.0,-5.537845136553748,0.18103497951094877,-9.863984207828052,,,,,,,,,,
acc,1778675417.0,162.0,-5.542506255824016,0.1829750474339462,-9.868272917337636,,,,,,,,,,
acc,1778675417.0,162.0,-5.547479989743157,0.18386808554465725,-9.874971920284922,,,,,,,,,,
acc,1778675417.0,162.0,-5.5537928976788615,0.18020943922164542,-9.874972175449184,,,,,,,,,,
acc,1778675417.0,162.0,-5.556214793681856,0.17903330506505105,-9.877492691642479,,,,,,,,,,
acc,1778675417.0,162.0,-5.557585281438633,0.17960720052565377,-9.8771505727667,,,,,,,,,,
acc,1778675417.0,162.0,-5.560682657299721,0.17772660630408824,-9.875462686108662,,,,,,,,,,
acc,1778675417.0,162.0,-5.5661656489453035,0.1772829666937237,-9.87620390867291,,,,,,,,,,
acc,1778675417.0,162.0,-5.570214453942209,0.1754234931126362,-9.879352166800096,,,,,,,,,,
acc,1778675417.0,162.0,-5.573197066749941,0.17184158400481378,-9.880377521639245,,,,,,,,,,
acc,1778675417.0,162.0,-5.5761525761377655,0.17351023175592076,-9.882848918680006,,,,,,,,,,
acc,1778675417.0,162.0,-5.5773418864929,0.1731049069273915,-9.884197459849121,,,,,,,,,,
acc,1778675417.0,162.0,-5.579549789545547,0.1727032653422597,-9.885178784835205,,,,,,,,,,
acc,1778675417.0,162.0,-5.582802532649817,0.17230527353036204,-9.8865061541843,,,,,,,,,,
acc,1778675417.0,162.0,-5.584605852249149,0.17258533664999198,-9.888886365116472,,,,,,,,,,
acc,1778675417.0,162.0,-5.587812650203132,0.1718334546741359,-9.887091833711393,,,,,,,,,,
acc,1778675417.0,162.0,-5.592729640342544,0.17176283439019424,-9.885952553423914,,,,,,,,,,
acc,1778675417.0,162.0,-5.599341281910015,0.1716928558426352,-9.889012224227837,,,,,,,,,,
acc,1778675417.0,162.0,-5.605182918971443,0.16920975116435621,-9.887819989639484,,,,,,,,,,
acc,1778675417.0,162.0,-5.609587101259306,0.16777861092237853,-9.88841342530246,,,,,,,,,,
acc,1778675417.0,162.0,-5.615690594925713,0.16742537013000144,-9.885913258896952,,,,,,,,,,
acc,1778675417.0,162.0,-5.620673721729269,0.17055401396413142,-9.883790782736222,,,,,,,,,,
acc,1778675417.0,162.0,-5.623197804140702,0.16911065822536453,-9.879557795773367,,,,,,,,,,
acc,1778675417.0,162.0,-5.624634046301415,0.16629604746592003,-9.877138101706922,,,,,,,,,,
acc,1778675417.0,162.0,-5.629535902708226,0.16002833880087025,-9.87261059770368,,,,,,,,,,
acc,1778675417.0,162.0,-5.634393215262594,0.1524332237728396,-9.874407137682281,,,,,,,,,,
acc,1778675417.0,162.0,-5.638886921308236,0.1497701631755439,-9.871679286571517,,,,,,,,,,
acc,1778675417.0,162.0,-5.644724163410327,0.14922560584603883,-9.872099927596945,,,,,,,,,,
acc,1778675417.0,162.0,-5.6494434581243125,0.15042532976667458,-9.872481242749679,,,,,,,,,,
acc,1778675417.0,162.0,-5.654474838830632,0.1509042189547503,-9.873214063719184,,,,,,,,,,
acc,1778675417.0,162.0,-5.6619097641315905,0.152088689083568,-9.877809356241162,,,,,,,,,,
acc,1778675417.0,162.0,-5.668567194558507,0.15187802478375456,-9.877464359801754,,,,,,,,,,
acc,1778675417.0,162.0,-5.67306982433412,0.15131431302729412,-9.882021029286669,,,,,,,,,,
acc,1778675417.0,162.0,-5.67859644163699,0.14518274551237906,-9.880608351604101,,,,,,,,,,
acc,1778675417.0,162.0,-5.680594172256623,0.1377225345120946,-9.883077650990845,,,,,,,,,,
acc,1778675417.0,162.0,-5.686052414759804,0.1306850772784177,-9.881690875092373,,,,,,,,,,
acc,1778675417.0,162.0,-5.691461057454194,0.12509594137451482,-9.885144243171167,,,,,,,,,,
acc,1778675417.0,162.0,-5.698559883826919,0.12686989667027476,-9.88469709924114,,,,,,,,,,
acc,1778675417.0,162.0,-5.705949173055021,0.1282727699971291,-9.888442616768476,,,,,,,,,,
acc,1778675417.0,162.0,-5.7132713147847,0.1282785242456421,-9.88903039452038,,,,,,,,,,
acc,1778675417.0,162.0,-5.719142548222559,0.12654489344240175,-9.895505267645781,,,,,,,,,,
acc,1778675417.0,162.0,-5.725989829040607,0.12202278007953468,-9.898833102416269,,,,,,,,,,
acc,1778675417.0,162.0,-5.734869191302107,0.11860666333125242,-9.901101296596318,,,,,,,,,,
acc,1778675417.0,162.0,-5.74121860014226,0.11763536037190359,-9.905088212138555,,,,,,,,,,
acc,1778675417.0,162.0,-5.743002236330516,0.11457858014517998,-9.909393859814195,,,,,,,,,,
acc,1778675417.0,162.0,-5.7465089971240895,0.11364388093554628,-9.908406879757683,,,,,,,,,,
acc,1778675417.0,162.0,-5.75101330067279,0.1127176754674204,-9.903595232143209,,,,,,,,,,
acc,1778675417.0,162.0,-5.75235296927282,0.11006054471740424,-9.902625450657185,,,,,,,,,,
acc,1778675417.0,162.0,-5.754709864207041,0.11126120514758456,-9.900670575982755,,,,,,,,,,
acc,1778675417.0,162.0,-5.758784674459756,0.11071161317275995,-9.900082342127016,,,,,,,,,,
acc,1778675417.0,162.0,-5.7617930562589645,0.10842768266782755,-9.89985441542109,,,,,,,,,,
acc,1778675417.0,162.0,-5.764774100475328,0.10825881017776885,-9.898315186765874,,,,,,,,,,
acc,1778675417.0,162.0,-5.769112426488916,0.1080914722554565,-9.898493783680008,,,,,,,,,,
acc,1778675417.0,162.0,-5.770962055040046,0.1040920185923638,-9.897960824999265,,,,,,,,,,
acc,1778675417.0,162.0,-5.774214741078933,0.10570187762452736,-9.894983434897437,,,,,,,,,,
acc,1778675417.0,162.0,-5.77708290772275,0.10520280402852958,-9.893772442582318,,,,,,,,,,
acc,1778675417.0,162.0,-5.779570040065707,0.10399833292494258,-9.889768218449191,,,,,,,,,,
acc,1778675417.0,162.0,-5.778910867796509,0.10177540693478847,-9.887575217444807,,,,,,,,,,
acc,1778675417.0,162.0,-5.7817363600833085,0.10060208106312946,-9.887496439069375,,,,,,,,,,
acc,1778675417.0,162.0,-5.786275509468522,0.10224365363423936,-9.88670844390671,,,,,,,,,,
acc,1778675417.0,162.0,-5.790063478317316,0.09900727258036036,-9.88553714413226,,,,,,,,,,
acc,1778675417.0,162.0,-5.791048292551765,0.09580030096962787,-9.88579635343402,,,,,,,,,,
acc,1778675417.0,162.0,-5.792379119427239,0.09262247155430596,-9.881190170843032,,,,,,,,,,
acc,1778675417.0,162.0,-5.795082223844741,0.09014794872265887,-9.881488881690627,,,,,,,,,,
acc,1778675417.0,162.0,-5.798790164856211,0.0905001484827184,-9.87798674522127,,,,,,,,,,
acc,1778675417.0,162.0,-5.801080040345352,0.08978425331607862,-9.880124896580806,,,,,,,,,,
acc,1778675417.0,162.0,-5.804378507495945,0.0884004252944502,-9.876954622258818,,,,,,,,,,
acc,1778675417.0,162.0,-5.805233239081943,0.0838699742707732,-9.87587195681196,,,,,,,,,,
acc,1778675417.0,162.0,-5.807819536333511,0.0821849283369427,-9.875154100566377,,,,,,,,,,
acc,1778675417.0,162.0,-5.810737293326959,0.0822545273778148,-9.87447826194078,,,,,,,,,,
acc,1778675417.0,162.0,-5.813273574475694,0.08406282669068874,-9.876648295366438,,,,,,,,,,
acc,1778675417.0,162.0,-5.816141769869282,0.08273099006557919,-9.874255040420794,,,,,,,,,,
acc,1778675417.0,162.0,-5.818628939791695,0.08417999791194306,-9.872557971605637,,,,,,,,,,
acc,1778675417.0,162.0,-5.820028604935182,0.0842314674802421,-9.871515259132941,,,,,,,,,,
acc,1778675417.0,162.0,-5.823154883852638,0.08602180206229215,-9.86842322178648,,,,,,,,,,
acc,1778675417.0,162.0,-5.8255783246374895,0.08815082940834768,-9.867418082356675,,,,,,,,,,
acc,1778675417.0,162.0,-5.829009143352822,0.08710131196291442,-9.866812541997819,,,,,,,,,,
acc,1778675417.0,162.0,-5.830669453021254,0.086061331627723,-9.866567475136927,,,,,,,,,,
acc,1778675417.0,162.0,-5.834763940598252,0.08471133431680769,-9.864975758653102,,,,,,,,,,
acc,1778675417.0,162.0,-5.8374368500606435,0.08511293733927949,-9.865776782966925,,,,,,,,,,
acc,1778675417.0,162.0,-5.839375537775158,0.0844459965083264,-9.864156757252513,,,,,,,,,,
acc,1778675417.0,162.0,-5.840941646585043,0.08343014539260345,-9.864645756523842,,,,,,,,,,
acc,1778675417.0,162.0,-5.843558418377922,0.08277849632467861,-9.860551239787938,,,,,,,,,,
acc,1778675417.0,162.0,-5.846151411203629,0.08145833059361478,-9.861427964674245,,,,,,,,,,
acc,1778675417.0,162.0,-5.845916604910669,0.08188949410872459,-9.860876857342804,,,,,,,,,,
acc,1778675417.0,162.0,-5.847068303271258,0.07883807414742851,-9.859656319712059,,,,,,,,,,
acc,1778675417.0,162.0,-5.8482095359896045,0.0747494793453482,-9.86196104215593,,,,,,,,,,
acc,1778675417.0,162.0,-5.850050330816407,0.07176294168499878,-9.860766155836927,,,,,,,,,,
acc,1778675417.0,162.0,-5.852229368953553,0.07295664682249063,-9.861285965969568,,,,,,,,,,
acc,1778675417.0,162.0,-5.853678673222476,0.07275513366207333,-9.86006171071407,,,,,,,,,,
acc,1778675417.0,162.0,-5.855114807463175,0.0711710898328998,-9.860232951369143,,,,,,,,,,
acc,1778675417.0,162.0,-5.857602785780412,0.07237017320855016,-9.857598399709406,,,,,,,,,,
acc,1778675417.0,162.0,-5.860387622914066,0.07146405676819462,-9.860241299257684,,,,,,,,,,
acc,1778675417.0,162.0,-5.86456701914083,0.07198603962616378,-9.857642175188936,,,,,,,,,,
acc,1778675417.0,162.0,-5.868353474836958,0.07108341386121511,-9.858509840782435,,,,,,,,,,
acc,1778675417.0,162.0,-5.871395589840899,0.0701889903813193,-9.859369621778791,,,,,,,,,,
acc,1778675417.0,162.0,-5.874055089858972,0.06724389452181208,-9.856387953538912,,,,,,,,,,
acc,1778675417.0,162.0,-5.8794946588549255,0.06709429392965226,-9.857657481643535,,,,,,,,,,
acc,1778675417.0,162.0,-5.882435532381006,0.06520672006926415,-9.856111237149712,,,,,,,,,,
acc,1778675417.0,162.0,-5.884675243498345,0.0643656989170777,-9.855572949296505,,,,,,,,,,
acc,1778675417.0,162.0,-5.887214069469831,0.0621479493107384,-9.852661276306831,,,,,,,,,,
acc,1778675417.0,162.0,-5.8911496900686275,0.06275458892018315,-9.852189833084154,,,,,,,,,,
acc,1778675418.0,163.0,-5.894339623581959,0.0616163832041942,-9.851083739094578,,,,,,,,,,
acc,1778675418.0,163.0,-5.896116198800465,0.060488520520753944,-9.852401467324881,,,,,,,,,,
acc,1778675418.0,163.0,-5.89855105923126,0.05866097423705899,-9.85090298496027,,,,,,,,,,
acc,1778675418.0,163.0,-5.903058097320773,0.05198699877891269,-9.854636126717367,,,,,,,,,,
acc,1778675418.0,163.0,-5.907524179332757,0.0540703432729534,-9.852087937633783,,,,,,,,,,
acc,1778675418.0,163.0,-5.909535906452247,0.053330519913546676,-9.855455340695299,,,,,,,,,,
acc,1778675418.0,163.0,-5.912203791012733,0.05085808672634926,-9.855632945708376,,,,,,,,,,
acc,1778675418.0,163.0,-5.914847432137846,0.0515673188719798,-9.855489469382459,,,,,,,,,,
acc,1778675418.0,163.0,-5.9178220209962005,0.05432891533593903,-9.85222359321578,,,,,,,,,,
acc,1778675418.0,163.0,-5.921124541132849,0.05603601673098277,-9.855234801775158,,,,,,,,,,
acc,1778675418.0,163.0,-5.921273347184577,0.054248930966482325,-9.853000639869974,,,,,,,,,,
acc,1778675418.0,163.0,-5.922805171940183,0.05109371377202103,-9.851851674522903,,,,,,,,,,
acc,1778675418.0,163.0,-5.9274467804198805,0.05180080474139929,-9.850038720787506,,,,,,,,,,
acc,1778675418.0,163.0,-5.9289225063361695,0.04969723406838602,-9.84753230897059,,,,,,,,,,
acc,1778675418.0,163.0,-5.9282905185610275,0.04867768233933878,-9.847781911664583,,,,,,,,,,
acc,1778675418.0,163.0,-5.930787977371139,0.04798686283472698,-9.841071906292154,,,,,,,,,,
acc,1778675418.0,163.0,-5.933262741428339,0.046627891707827045,-9.84102525377814,,,,,,,,,,
acc,1778675418.0,163.0,-5.932946284203615,0.04805000249849572,-9.84002061386377,,,,,,,,,,
acc,1778675418.0,163.0,-5.933307131863572,0.044951115825940025,-9.836895305326031,,,,,,,,,,
acc,1778675418.0,163.0,-5.932990271256969,0.04049602732866528,-9.839051898445405,,,,,,,,,,
acc,1778675418.0,163.0,-5.935445022764188,0.03956008823449893,-9.835544927534839,,,,,,,,,,
acc,1778675418.0,163.0,-5.9330144312850495,0.03966205420604113,-9.837003859081243,,,,,,,,,,
acc,1778675418.0,163.0,-5.932700230489118,0.03873369354091449,-9.833160528123795,,,,,,,,,,
acc,1778675418.0,163.0,-5.930294581316515,0.03536450367767331,-9.83077198732703,,,,,,,,,,
acc,1778675418.0,163.0,-5.928940192667321,0.03341029194190329,-9.828085684113459,,,,,,,,,,
acc,1778675418.0,163.0,-5.92830804417538,0.03008947656374926,-9.826843656989285,,,,,,,,,,
acc,1778675418.0,163.0,-5.927681640104004,0.028538170590806523,-9.8273167546744,,,,,,,,,,
acc,1778675418.0,163.0,-5.927060928252847,0.027000961549267795,-9.824981317053881,,,,,,,,,,
acc,1778675418.0,163.0,-5.927155789536283,0.029311357596347676,-9.827210670775571,,,,,,,,,,
acc,1778675418.0,163.0,-5.930018530642702,0.031600758755811836,-9.824166273601708,,,,,,,,,,
acc,1778675418.0,163.0,-5.929731554009151,0.03351439403460982,-9.8264385371822,,,,,,,,,,
acc,1778675418.0,163.0,-5.929092214308274,0.03019263266965455,-9.82269121476649,,,,,,,,,,
acc,1778675418.0,163.0,-5.93019801707147,0.02761098924836016,-9.821107751793388,,,,,,,,,,
acc,1778675418.0,163.0,-5.93058383861261,0.02331347288119174,-9.817444374407515,,,,,,,,,,
acc,1778675418.0,163.0,-5.930646686724103,0.019729437830403276,-9.815198648469336,,,,,,,,,,
acc,1778675418.0,163.0,-5.930708963726138,0.01862724582246301,-9.811943929696872,,,,,,,,,,
acc,1778675418.0,163.0,-5.930770674808466,0.01615069866650696,-9.81290739411945,,,,,,,,,,
acc,1778675418.0,163.0,-5.931861225169028,0.016820359849509237,-9.810383428931285,,,,,,,,,,
acc,1778675418.0,163.0,-5.93258690377197,0.01400526125281312,-9.81100610297584,,,,,,,,,,
acc,1778675418.0,163.0,-5.935045320727644,0.011570714708488786,-9.812652527837683,,,,,,,,,,
acc,1778675418.0,163.0,-5.9350676267364,0.009477758640186712,-9.812189687852566,,,,,,,,,,
acc,1778675418.0,163.0,-5.937858471883138,0.009143154246139725,-9.81240549203708,,,,,,,,,,
acc,1778675418.0,163.0,-5.940623956235154,0.006752790339028767,-9.813329258731004,,,,,,,,,,
acc,1778675418.0,163.0,-5.942654368523513,0.0022898444420054766,-9.815345028891583,,,,,,,,,,
acc,1778675418.0,163.0,-5.94434686275976,0.002020557614725996,-9.815177189194317,,,,,,,,,,
acc,1778675418.0,163.0,-5.948118280623357,1.4385141021287969e-05,-9.817140672595537,,,,,,,,,,
acc,1778675418.0,163.0,-5.951145494454189,0.00012074658883529844,-9.819441275328064,,,,,,,,,,
acc,1778675418.0,163.0,-5.9516959342444675,-0.0025426003182250564,-9.820336610336602,,,,,,,,,,
acc,1778675418.0,163.0,-5.951886401249694,-0.003442403245214479,-9.82299863636495,,,,,,,,,,
acc,1778675418.0,163.0,-5.95140070826391,-0.004689000401678583,-9.821767341588549,,,,,,,,,,
acc,1778675418.0,163.0,-5.950564457974555,-0.0045398986415019806,-9.825765242920575,,,,,,,,,,
acc,1778675418.0,163.0,-5.949380835944217,-0.0075158553975998256,-9.822769474917747,,,,,,,,,,
acc,1778675418.0,163.0,-5.948207969650459,-0.012559072778559634,-9.826403298862665,,,,,,,,,,
acc,1778675418.0,163.0,-5.945661399525598,-0.011273560173020048,-9.823366238398103,,,,,,,,,,
acc,1778675418.0,163.0,-5.9424280377965895,-0.013833365442765122,-9.82635570463971,,,,,,,,,,
acc,1778675418.0,163.0,-5.94238325603822,-0.011151902248819522,-9.826087809415238,,,,,,,,,,
acc,1778675418.0,163.0,-5.939179683251338,-0.011299042071774687,-9.826567775589533,,,,,,,,,,
acc,1778675418.0,163.0,-5.939164419738235,-0.01350364492078963,-9.82739835110748,,,,,,,,,,
acc,1778675418.0,163.0,-5.936345058736137,-0.013948881549248672,-9.830990111814598,,,,,,,,,,
acc,1778675418.0,163.0,-5.9335513176561285,-0.019963041184611823,-9.831035073956167,,,,,,,,,,
acc,1778675418.0,163.0,-5.9283691927187565,-0.021414483889187444,-9.832854454570874,,,,,,,,,,
acc,1778675418.0,163.0,-5.9263578620700015,-0.02178783363402163,-9.83014922770329,,,,,,,,,,
acc,1778675418.0,163.0,-5.922625475970198,-0.02251275247340351,-9.832367123346973,,,,,,,,,,
acc,1778675418.0,163.0,-5.918572035715124,-0.0260353200647406,-9.82618765954631,,,,,,,,,,
acc,1778675418.0,163.0,-5.915939800544915,-0.02707661227189924,-9.827696127507803,,,,,,,,,,
acc,1778675418.0,163.0,-5.912976523083472,-0.029492813027650115,-9.826777107759233,,,,,,,,,,
acc,1778675418.0,163.0,-5.910040173332775,-0.030502686519791163,-9.826150412324669,,,,,,,,,,
acc,1778675418.0,163.0,-5.906811039182075,-0.03114841229017889,-9.82659431525716,,,,,,,,,,
acc,1778675418.0,163.0,-5.9049956104454235,-0.02937450838258107,-9.82706967874259,,,,,,,,,,
acc,1778675418.0,163.0,-5.901102375208943,-0.02793619159916512,-9.829315558670618,,,,,,,,,,
acc,1778675418.0,163.0,-5.901078163664393,-0.026191477583754393,-9.830795602981166,,,,,,,,,,
acc,1778675418.0,163.0,-5.89895986858282,-0.026201950713713583,-9.832297692285131,,,,,,,,,,
acc,1778675418.0,163.0,-5.895476451826956,-0.0230531307106714,-9.833431161034568,,,,,,,,,,
acc,1778675418.0,163.0,-5.893054089410831,-0.021672257157365985,-9.836613138987563,,,,,,,,,,
acc,1778675418.0,163.0,-5.890653739335836,-0.019984464377598866,-9.839127257951706,,,,,,,,,,
acc,1778675418.0,163.0,-5.891079437759554,-0.020051341491574316,-9.840198665496917,,,,,,,,,,
acc,1778675418.0,163.0,-5.890436364304476,-0.01869774561068674,-9.844384040615392,,,,,,,,,,
acc,1778675418.0,163.0,-5.88738537266918,-0.022574448105830362,-9.845372184692232,,,,,,,,,,
acc,1778675418.0,163.0,-5.8832972023169345,-0.02400216059396686,-9.848765120331974,,,,,,,,,,
acc,1778675418.0,163.0,-5.878571743455607,-0.026446299313128956,-9.850103918155686,,,,,,,,,,
acc,1778675418.0,163.0,-5.875628567264875,-0.029578160443390962,-9.84965571400433,,,,,,,,,,
acc,1778675418.0,163.0,-5.871292270848934,-0.03268156191996381,-9.849531059247608,,,,,,,,,,
acc,1778675418.0,163.0,-5.8680602733671,-0.03575676235964783,-9.851182364293225,,,,,,,,,,
acc,1778675418.0,163.0,-5.86276334194279,-0.03773911453108052,-9.852499196287765,,,,,,,,,,
acc,1778675418.0,163.0,-5.862377580751113,-0.03728968183174892,-9.854513994684801,,,,,,,,,,
acc,1778675418.0,163.0,-5.85922659228672,-0.03475002964055336,-9.854345192062368,,,,,,,,,,
acc,1778675418.0,163.0,-5.8567786755648985,-0.03432775916740104,-9.851409181547822,,,,,,,,,,
acc,1778675418.0,163.0,-5.8515842615750016,-0.03181502237572868,-9.851304087150075,,,,,,,,,,
acc,1778675418.0,163.0,-5.848176382627555,-0.029325119169531625,-9.848750673349581,,,,,,,,,,
acc,1778675418.0,163.0,-5.845509413268931,-0.02405361495964071,-9.851473973366396,,,,,,,,,,
acc,1778675418.0,163.0,-5.843186146442806,-0.02337358250566648,-9.850977824974867,,,,,,,,,,
acc,1778675418.0,163.0,-5.838115249638407,-0.020960387826699144,-9.853964859612214,,,,,,,,,,
acc,1778675418.0,163.0,-5.833090432771998,-0.01959853131783014,-9.849967401734428,,,,,,,,,,
acc,1778675418.0,163.0,-5.827046382698471,-0.020698315508949336,-9.850904809038811,,,,,,,,,,
acc,1778675418.0,163.0,-5.822477121012596,-0.02249803844549984,-9.846935158262475,,,,,,,,,,
acc,1778675418.0,163.0,-5.818623819113118,-0.026340207152228765,-9.846515749069104,,,,,,,,,,
acc,1778675418.0,163.0,-5.814131094423097,-0.029473032353820205,-9.845461216276169,,,,,,,,,,
acc,1778675418.0,163.0,-5.80793985396827,-0.030483085593715625,-9.846439571908306,,,,,,,,,,
acc,1778675418.0,163.0,-5.802479312444285,-0.030454560290554204,-9.847444531448016,,,,,,,,,,
acc,1778675418.0,163.0,-5.798133295110687,-0.03457939784809485,-9.845671626046073,,,,,,,,,,
acc,1778675418.0,163.0,-5.792761867138257,-0.033803716155549335,-9.846683564015517,,,,,,,,,,
acc,1778675418.0,163.0,-5.787439250071889,-0.03615878678643487,-9.84211333744686,,,,,,,,,,
acc,1778675418.0,163.0,-5.7814905620844925,-0.036078685604789634,-9.842802648300564,,,,,,,,,,
acc,1778675418.0,163.0,-5.7759154071458205,-0.033905008766738215,-9.836847822876686,,,,,,,,,,
acc,1778675418.0,163.0,-5.768651572635639,-0.033490417115023124,-9.83754947873935,,,,,,,,,,
acc,1778675418.0,163.0,-5.761453745590431,-0.03169523109076425,-9.831322922177087,,,,,,,,,,
acc,1778675418.0,163.0,-5.754001858777053,-0.02782205462261314,-9.829661021699627,,,,,,,,,,
acc,1778675418.0,163.0,-5.748002059196853,-0.025368436066544015,-9.826984814003925,,,,,,,,,,
acc,1778675418.0,163.0,-5.741346847986561,-0.028155121022930926,-9.826356231115609,,,,,,,,,,
acc,1778675418.0,163.0,-5.73720137891798,-0.030206550353735623,-9.824774958004085,,,,,,,,,,
acc,1778675418.0,163.0,-5.732028685888371,-0.03397867074860802,-9.823527521553338,,,,,,,,,,
acc,1778675418.0,163.0,-5.7265835213316745,-0.036332151542081054,-9.8212265172328,,,,,,,,,,
acc,1778675418.0,163.0,-5.719767972464715,-0.035895504109795064,-9.817526557184767,,,,,,,,,,
acc,1778675418.0,163.0,-5.714079260925874,-0.039296460783803396,-9.815670549675367,,,,,,,,,,
acc,1778675418.0,163.0,-5.708797205266597,-0.038122943629855736,-9.812376048331256,,,,,,,,,,
acc,1778675418.0,163.0,-5.704592557511331,-0.03802499388448646,-9.810566844205324,,,,,,,,,,
acc,1778675418.0,163.0,-5.699041747058882,-0.03824740163604075,-9.809803480615905,,,,,,,,,,
acc,1778675418.0,163.0,-5.694215815860996,-0.037793350062434596,-9.805852361501483,,,,,,,,,,
acc,1778675418.0,163.0,-5.68840433851543,-0.04323586993407588,-9.806480715616296,,,,,,,,,,
acc,1778675418.0,163.0,-5.681616261728688,-0.04621516191813609,-9.801920856097196,,,,,,,,,,
acc,1778675418.0,163.0,-5.675564307406059,-0.04778300975509304,-9.801520032846707,,,,,,,,,,
acc,1778675418.0,163.0,-5.669567348026081,-0.04724230679722414,-9.799419013607897,,,,,,,,,,
acc,1778675418.0,163.0,-5.662950445566947,-0.04880082082710234,-9.797372590067457,,,,,,,,,,
acc,1778675418.0,163.0,-5.6560387100380005,-0.04718597447074343,-9.797013097536848,,,,,,,,,,
acc,1778675418.0,163.0,-5.650219182451078,-0.04874500040014102,-9.79498853688723,,,,,,,,,,
acc,1778675418.0,163.0,-5.64061890148353,-0.05234865934434545,-9.796816009928623,,,,,,,,,,
acc,1778675419.0,164.0,-5.632170763087811,-0.05418023865915649,-9.794757736794251,,,,,,,,,,
acc,1778675419.0,164.0,-5.623799394089473,-0.05741503943052725,-9.7923987000574,,,,,,,,,,
acc,1778675419.0,164.0,-5.61479415515225,-0.054692505347367665,-9.790380567626329,,,,,,,,,,
acc,1778675419.0,164.0,-5.606225718922836,-0.05234968216753865,-9.787315879833711,,,,,,,,,,
acc,1778675419.0,164.0,-5.597025212618775,-0.04967317768360998,-9.787793210096252,,,,,,,,,,
acc,1778675419.0,164.0,-5.589328177852853,-0.04737596582568113,-9.784787528337981,,,,,,,,,,
acc,1778675419.0,164.0,-5.579606783557213,-0.05031763618709885,-9.788127564618607,,,,,,,,,,
acc,1778675419.0,164.0,-5.570648167185656,-0.054971907868550475,-9.782669579216117,,,,,,,,,,
acc,1778675419.0,164.0,-5.560031626311337,-0.059583885542102685,-9.782479198417318,,,,,,,,,,
acc,1778675419.0,164.0,-5.550221492041286,-0.06344402090432405,-9.780231738450254,,,,,,,,,,
acc,1778675419.0,164.0,-5.540500503812688,-0.06762404954579257,-9.774845503508004,,,,,,,,,,
acc,1778675419.0,164.0,-5.532607184226847,-0.07141112283019352,-9.776856019067393,,,,,,,,,,
acc,1778675419.0,164.0,-5.525140563184373,-0.07204007886460231,-9.776079522975419,,,,,,,,,,
acc,1778675419.0,164.0,-5.516357421446088,-0.0695396158955635,-9.781557490197043,,,,,,,,,,
acc,1778675419.0,164.0,-5.507973560740521,-0.06706187497795611,-9.781057738603323,,,,,,,,,,
acc,1778675419.0,164.0,-5.500730788827829,-0.06911472413623788,-9.784076697135301,,,,,,,,,,
acc,1778675419.0,164.0,-5.4931988621202,-0.07604744940801193,-9.785257891484719,,,,,,,,,,
acc,1778675419.0,164.0,-5.48782968261246,-0.07872857804861097,-9.784724513834888,,,,,,,,,,
acc,1778675419.0,164.0,-5.483183722766167,-0.07964601022052997,-9.789023524977694,,,,,,,,,,
acc,1778675419.0,164.0,-5.475101316030198,-0.07672146024509098,-9.789094872412566,,,,,,,,,,
acc,1778675419.0,164.0,-5.470571020604228,-0.07069978246523438,-9.792395767263349,,,,,,,,,,
acc,1778675419.0,164.0,-5.466081892596812,-0.06821149895456945,-9.800103743123243,,,,,,,,,,
acc,1778675419.0,164.0,-5.459894225230666,-0.06677522686746845,-9.800109897449756,,,,,,,,,,
acc,1778675419.0,164.0,-5.45273338600164,-0.07440364974695592,-9.806789362617302,,,,,,,,,,
acc,1778675419.0,164.0,-5.445637618305035,-0.08267268473167846,-9.806699269438752,,,,,,,,,,
acc,1778675419.0,164.0,-5.439990701736284,-0.08529360894603814,-9.809804696348962,,,,,,,,,,
acc,1778675419.0,164.0,-5.434395099476205,-0.08544144205608968,-9.814266265639347,,,,,,,,,,
acc,1778675419.0,164.0,-5.429560277859262,-0.08143482814534424,-9.814143723173242,,,,,,,,,,
acc,1778675419.0,164.0,-5.4254438201198605,-0.0743054249346865,-9.821654072361635,,,,,,,,,,
acc,1778675419.0,164.0,-5.423104110969144,-0.06724080759300487,-9.8246590972778,,,,,,,,,,
acc,1778675419.0,164.0,-5.420785663077749,-0.061979720085223566,-9.830370053490158,,,,,,,,,,
acc,1778675419.0,164.0,-5.41745888319328,-0.06233940971420082,-9.834964219048445,,,,,,,,,,
acc,1778675419.0,164.0,-5.408589356218875,-0.07071807410853807,-9.837848292828413,,,,,,,,,,
acc,1778675419.0,164.0,-5.399800427857755,-0.0831737040660342,-9.838895828142707,,,,,,,,,,
acc,1778675419.0,164.0,-5.392475736608433,-0.08681947549668077,-9.839933844359315,,,,,,,,,,
acc,1778675419.0,164.0,-5.385927538471944,-0.08627901365973184,-9.84096242797959,,,,,,,,,,
acc,1778675419.0,164.0,-5.3804682447621754,-0.08677286312226337,-9.843401529987952,,,,,,,,,,
acc,1778675419.0,164.0,-5.373674189497134,-0.08797215754125735,-9.845463496679569,,,,,,,,,,
acc,1778675419.0,164.0,-5.365912472699773,-0.09331365744695266,-9.84786169685669,,,,,,,,,,
acc,1778675419.0,164.0,-5.358576258552848,-0.09548291481535842,-9.85087704817313,,,,,,,,,,
acc,1778675419.0,164.0,-5.35130670959433,-0.09518319452596274,-9.85425545471047,,,,,,,,,,
acc,1778675419.0,164.0,-5.341298983850364,-0.09140753247058188,-9.85625429374028,,,,,,,,,,
acc,1778675419.0,164.0,-5.328932934371394,-0.08592683860645306,-9.856815103775512,,,,,,,,,,
acc,1778675419.0,164.0,-5.310076878842908,-0.08085091942316151,-9.859749094250049,,,,,,,,,,
acc,1778675419.0,164.0,-5.289297876431749,-0.07720549672564328,-9.858574308228963,,,,,,,,,,
acc,1778675419.0,164.0,-5.2655839920857685,-0.07675239843790758,-9.859823968607476,,,,,,,,,,
acc,1778675419.0,164.0,-5.2378969919861,-0.07768778842571528,-9.859251942660332,,,,,,,,,,
acc,1778675419.0,164.0,-5.208047816512582,-0.07928910758325287,-9.860104980060676,,,,,,,,,,
acc,1778675419.0,164.0,-5.177759951973341,-0.08055640791933376,-9.860595294931878,,,,,,,,,,
acc,1778675419.0,164.0,-5.147392355657129,-0.08110225948826962,-9.861116657691388,,,,,,,,,,
acc,1778675419.0,164.0,-5.115206410327858,-0.08235308346325262,-9.862698177163779,,,,,,,,,,
acc,1778675419.0,164.0,-5.081254133933405,-0.0846219410766325,-9.863200430742827,,,,,,,,,,
acc,1778675419.0,164.0,-5.047610386550838,-0.08584078122026255,-9.86259772241929,,,,,,,,,,
acc,1778675419.0,164.0,-5.013207470126472,-0.08495424205233414,-9.862355461850075,,,,,,,,,,
acc,1778675419.0,164.0,-4.976348435924242,-0.08233642630542005,-9.860092087912612,,,,,,,,,,
acc,1778675419.0,164.0,-4.9387594504343895,-0.07974239901075098,-9.857849281565855,,,,,,,,,,
acc,1778675419.0,164.0,-4.899098270275889,-0.07820134404746673,-9.852858123178716,,,,,,,,,,
acc,1778675419.0,164.0,-4.8577031931808,-0.07738422549726719,-9.848515760602716,,,,,,,,,,
acc,1778675419.0,164.0,-4.814235013535784,-0.07586459958149745,-9.844958284667827,,,,,,,,,,
acc,1778675419.0,164.0,-4.768748064269186,-0.07506871535009198,-9.840084268544992,,,,,,,,,,
acc,1778675419.0,164.0,-4.723674461175449,-0.07321516902033647,-9.835254543277959,,,,,,,,,,
acc,1778675419.0,164.0,-4.679010448120959,-0.07556706412050737,-9.829403802894513,,,,,,,,,,
acc,1778675419.0,164.0,-4.633687399609511,-0.07860751986033115,-9.824316161629097,,,,,,,,,,
acc,1778675419.0,164.0,-4.5898411113772415,-0.07672181592667773,-9.818884287239898,,,,,,,,,,
acc,1778675419.0,164.0,-4.544653927722659,-0.07137457319255372,-9.815560582224549,,,,,,,,,,
acc,1778675419.0,164.0,-4.496043720916944,-0.06366215063288667,-9.808433443949042,,,,,,,,,,
acc,1778675419.0,164.0,-4.444716043804471,-0.05530987928490597,-9.800661138326321,,,,,,,,,,
acc,1778675419.0,164.0,-4.393854788363148,-0.046678544403409364,-9.79544422039181,,,,,,,,,,
acc,1778675419.0,164.0,-4.342781286967752,-0.04160430901532904,-9.79031021275615,,,,,,,,,,
acc,1778675419.0,164.0,-4.292526859287323,-0.037996049171699846,-9.786891193430243,,,,,,,,,,
acc,1778675419.0,164.0,-4.24340353878698,-0.03647938726527643,-9.781479937467857,,,,,,,,,,
acc,1778675419.0,164.0,-4.192987266896224,-0.03707080193031132,-9.775727398200164,,,,,,,,,,
acc,1778675419.0,164.0,-4.142354705424562,-0.036627442280889544,-9.770027133049073,,,,,,,,,,
acc,1778675419.0,164.0,-4.0904429163302,-0.03966678595324924,-9.766472961448285,,,,,,,,,,
acc,1778675419.0,164.0,-4.038647885952228,-0.0419685780567777,-9.764725923223613,,,,,,,,,,
acc,1778675419.0,164.0,-3.985584191466613,-0.0428650825498169,-9.764024160623821,,,,,,,,,,
acc,1778675419.0,164.0,-3.932647723220312,-0.039564842384408126,-9.761908909768875,,,,,,,,,,
acc,1778675419.0,164.0,-3.878807925043052,-0.033525850138690354,-9.761268240118241,,,,,,,,,,
acc,1778675419.0,164.0,-3.825457376526927,-0.024063069682903532,-9.760242936187465,,,,,,,,,,
acc,1778675419.0,164.0,-3.7732660700672063,-0.010852633504238991,-9.75922694933472,,,,,,,,,,
acc,1778675419.0,164.0,-3.7215490331973258,0.0015278159000713387,-9.759959527576571,,,,,,,,,,
acc,1778675419.0,164.0,-3.6692725561163155,0.00999762967766194,-9.7593365722304,,,,,,,,,,
acc,1778675419.0,164.0,-3.6160867516737283,0.015586240913896224,-9.760387621727519,,,,,,,,,,
acc,1778675419.0,164.0,-3.5626743213268495,0.017645402305920835,-9.762174547187273,,,,,,,,,,
acc,1778675419.0,164.0,-3.5101022279514047,0.019330880954091904,-9.762880340201484,,,,,,,,,,
acc,1778675419.0,164.0,-3.4576528935682176,0.021710976059889992,-9.765354546619385,,,,,,,,,,
acc,1778675419.0,164.0,-3.4074195152793125,0.0261637464564281,-9.769155146131414,,,,,,,,,,
acc,1778675419.0,164.0,-3.3562582437087216,0.03022108305443899,-9.774305579980771,,,,,,,,,,
acc,1778675419.0,164.0,-3.3059168434325477,0.03143731389903205,-9.780474105536166,,,,,,,,,,
acc,1778675419.0,164.0,-3.2570623115288426,0.030228730817233283,-9.786267109436675,,,,,,,,,,
acc,1778675419.0,164.0,-3.210036089306317,0.02903113029634884,-9.795841107737665,,,,,,,,,,
acc,1778675419.0,164.0,-3.165176542610895,0.030613145266187115,-9.802204402207007,,,,,,,,,,
acc,1778675419.0,164.0,-3.120369669933813,0.03672435310703859,-9.811598081773719,,,,,,,,,,
acc,1778675419.0,164.0,-3.075650496066071,0.045548760290411223,-9.819167057911331,,,,,,,,,,
acc,1778675419.0,164.0,-3.0316571589037165,0.05603232063952997,-9.825673348032481,,,,,,,,,,
acc,1778675419.0,164.0,-2.9870341952072317,0.06606564457126628,-9.833078925927188,,,,,,,,,,
acc,1778675419.0,164.0,-2.9449110209829565,0.07114475803418392,-9.839068340854253,,,,,,,,,,
acc,1778675419.0,164.0,-2.9031706258441585,0.07198910980826934,-9.847807556232695,,,,,,,,,,
acc,1778675419.0,164.0,-2.86251947314589,0.07005705611173989,-9.854018091841251,,,,,,,,,,
acc,1778675419.0,164.0,-2.824296523166313,0.06952693016167871,-9.863650856821334,,,,,,,,,,
acc,1778675419.0,164.0,-2.7874858138921783,0.07074095422109217,-9.872131193131697,,,,,,,,,,
acc,1778675419.0,164.0,-2.751009608602856,0.0751031442269827,-9.879860029183828,,,,,,,,,,
acc,1778675419.0,164.0,-2.7155392968016745,0.08322383627613576,-9.888583535733154,,,,,,,,,,
acc,1778675419.0,164.0,-2.6800718411952658,0.09059629620399683,-9.89509797267454,,,,,,,,,,
acc,1778675419.0,164.0,-2.644216750608415,0.09580745803056762,-9.90435743911987,,,,,,,,,,
acc,1778675419.0,164.0,-2.610426812849659,0.09436889635776623,-9.912503363470632,,,,,,,,,,
acc,1778675419.0,164.0,-2.576588967135397,0.09361784536724461,-9.919829837690866,,,,,,,,,,
acc,1778675419.0,164.0,-2.5427036397246794,0.09496792282306418,-9.922936631592801,,,,,,,,,,
acc,1778675419.0,164.0,-2.5091262329508655,0.10049432993706427,-9.929138897220968,,,,,,,,,,
acc,1778675419.0,164.0,-2.4755344812831326,0.1063254886891633,-9.931415671422835,,,,,,,,,,
acc,1778675419.0,164.0,-2.442567449902672,0.11036431712958576,-9.935127115892197,,,,,,,,,,
acc,1778675419.0,164.0,-2.4106099271107584,0.11436644417973967,-9.937704436099807,,,,,,,,,,
acc,1778675419.0,164.0,-2.3792977775903075,0.11623789980769737,-9.938554497521789,,,,,,,,,,
acc,1778675419.0,164.0,-2.3468857949765103,0.11564308394461431,-9.941810605274648,,,,,,,,,,
acc,1778675419.0,164.0,-2.313703441017737,0.11260440793919417,-9.939535144141544,,,,,,,,,,
acc,1778675419.0,164.0,-2.2804676579057714,0.11030327743526178,-9.938948704399145,,,,,,,,,,
acc,1778675419.0,164.0,-2.2472144255186084,0.11324106475381931,-9.93527938448517,,,,,,,,,,
acc,1778675419.0,164.0,-2.2145828372473644,0.11860142131039937,-9.93302777909494,,,,,,,,,,
acc,1778675419.0,164.0,-2.182602738486264,0.12600737111119487,-9.93182603440069,,,,,,,,,,
acc,1778675419.0,164.0,-2.151268218147538,0.13334602202620313,-9.928185944810016,,,,,,,,,,
acc,1778675419.0,164.0,-2.120218438910518,0.13887865292784016,-9.924578933214766,,,,,,,,,,
acc,1778675419.0,164.0,-2.089805784154227,0.14262166628156037,-9.920330260756435,,,,,,,,,,
acc,1778675419.0,164.0,-2.059314522519499,0.14281649754675352,-9.916084702209938,,,,,,,,,,
acc,1778675419.0,164.0,-2.0280709391308007,0.14474890012235814,-9.910528856177388,,,,,,,,,,
acc,1778675419.0,164.0,-1.9967562996265806,0.14598930441543084,-9.90257422247982,,,,,,,,,,
acc,1778675419.0,164.0,-1.9653712587906826,0.14686347521037477,-9.89540180626829,,,,,,,,,,
acc,1778675419.0,164.0,-1.9335614855090755,0.14772970229491472,-9.888294566790652,,,,,,,,,,
acc,1778675419.0,164.0,-1.9017213046045334,0.1482330869940157,-9.878802646461047,,,,,,,,,,
acc,1778675420.0,165.0,-1.8694605180876287,0.15292049536471886,-9.870390886206453,,,,,,,,,,
acc,1778675420.0,165.0,-1.8361085279595732,0.15685538506303934,-9.860032259040326,,,,,,,,,,
acc,1778675420.0,165.0,-1.8027046410983962,0.1590151761078442,-9.84973225869878,,,,,,,,,,
acc,1778675420.0,165.0,-1.7696042999574793,0.1611553408339805,-9.840945721147055,,,,,,,,,,
acc,1778675420.0,165.0,-1.737159717035677,0.16292109581502578,-9.830464201030445,,,,,,,,,,
acc,1778675420.0,165.0,-1.705009962507119,0.16885940313501624,-9.82043288970412,,,,,,,,,,
acc,1778675420.0,165.0,-1.673471824639151,0.17612811914685392,-9.811202676006557,,,,,,,,,,
acc,1778675420.0,165.0,-1.6411908781257247,0.18265634506107448,-9.801346396810802,,,,,,,,,,
acc,1778675420.0,165.0,-1.60884830215834,0.1891252480873534,-9.792325119062648,,,,,,,,,,
acc,1778675420.0,165.0,-1.5761251893587724,0.18996239839507534,-9.781575488419062,,,,,,,,,,
acc,1778675420.0,165.0,-1.542279570723608,0.1879877052262028,-9.769965129821745,,,,,,,,,,
acc,1778675420.0,165.0,-1.5090964827467668,0.18571148895255044,-9.758815247012581,,,,,,,,,,
acc,1778675420.0,165.0,-1.475859963199682,0.1831009951961771,-9.745991848595251,,,,,,,,,,
acc,1778675420.0,165.0,-1.4426060010694477,0.18225355603781654,-9.734314387300142,,,,,,,,,,
acc,1778675420.0,165.0,-1.4099736896863282,0.18350811213100315,-9.724482373385754,,,,,,,,,,
acc,1778675420.0,165.0,-1.3773184451972602,0.1861356388084494,-9.714384733475244,,,,,,,,,,
acc,1778675420.0,165.0,-1.3449599434120885,0.1883843270156454,-9.707822032299896,,,,,,,,,,
acc,1778675420.0,165.0,-1.312540526015521,0.19167747549097444,-9.698230758063882,,,,,,,,,,
acc,1778675420.0,165.0,-1.2790313374213336,0.19770944048907316,-9.692205306421181,,,,,,,,,,
acc,1778675420.0,165.0,-1.2461461188522762,0.20265719214288969,-9.684495276205656,,,,,,,,,,
acc,1778675420.0,165.0,-1.213559732793245,0.2068500411748154,-9.676535840682957,,,,,,,,,,
acc,1778675420.0,165.0,-1.181624434572673,0.21238916011839512,-9.67141746637635,,,,,,,,,,
acc,1778675420.0,165.0,-1.149304898530938,0.21613861164359288,-9.66286693807855,,,,,,,,,,
acc,1778675420.0,165.0,-1.1172790545641937,0.21811465870471208,-9.657837280612437,,,,,,,,,,
acc,1778675420.0,165.0,-1.0858637012656558,0.21623911293004472,-9.651433463068242,,,,,,,,,,
acc,1778675420.0,165.0,-1.055088794469602,0.2105469742741292,-9.644129426568208,,,,,,,,,,
acc,1778675420.0,165.0,-1.0239191052157024,0.20806575881592757,-9.641044875578423,,,,,,,,,,
acc,1778675420.0,165.0,-0.9926776974472054,0.20766589059954052,-9.636213518199533,,,,,,,,,,
acc,1778675420.0,165.0,-0.9620751464270618,0.2062402559930871,-9.63178103489111,,,,,,,,,,
acc,1778675420.0,165.0,-0.9313957232290841,0.2093711451826808,-9.630512533758848,,,,,,,,,,
acc,1778675420.0,165.0,-0.9009950881748033,0.21211862177756485,-9.626486817854635,,,,,,,,,,
acc,1778675420.0,165.0,-0.8708707078779625,0.21587053172186824,-9.623953043813309,,,,,,,,,,
acc,1778675420.0,165.0,-0.8410200719735342,0.21958834754380396,-9.624175541982149,,,,,,,,,,
acc,1778675420.0,165.0,-0.812470092956134,0.22153304637968269,-9.624041047418885,,,,,,,,,,
acc,1778675420.0,165.0,-0.7855639133509668,0.22484444437763,-9.626321545982057,,,,,,,,,,
acc,1778675420.0,165.0,-0.7571629012236512,0.22709634211118818,-9.627516417846058,,,,,,,,,,
acc,1778675420.0,165.0,-0.7293749438654492,0.22652354036358677,-9.630120297013,,,,,,,,,,
acc,1778675420.0,165.0,-0.7025494321367057,0.2256364763308075,-9.632700514371354,,,,,,,,,,
acc,1778675420.0,165.0,-0.6756127166667795,0.22788117676092257,-9.63632218843389,,,,,,,,,,
acc,1778675420.0,165.0,-0.650305149748179,0.23148985019729496,-9.64030141706597,,,,,,,,,,
