sensor,time,t,ax,ay,az,wx,wy,wz,lat,lon,alt,v_kmh,satellites,x,y
acc,1778675478.0,223.0,0.117188,0.320312,-9.835938,,,,,,,,,,
acc,1778675478.0,223.0,0.117188,0.320312,-9.824949640891537,,,,,,,,,,
acc,1778675478.0,223.0,0.12649152426947105,0.320312,-9.819193316660966,,,,,,,,,,
acc,1778675478.0,223.0,0.13221744030887328,0.320312,-9.81565054853513,,,,,,,,,,
acc,1778675478.0,223.0,0.12979134354562394,0.320312,-9.813250261975506,,,,,,,,,,
acc,1778675478.0,223.0,0.1280388611640577,0.3252005458740127,-9.811516423502873,,,,,,,,,,
acc,1778675478.0,223.0,0.1267135492250507,0.3288975007075455,-9.81020521098955,,,,,,,,,,
acc,1778675478.0,223.0,0.12142172769732763,0.3317914260093364,-9.813007791618642,,,,,,,,,,
acc,1778675478.0,223.0,0.12100562831252808,0.3341185062269139,-9.81180611762487,,,,,,,,,,
acc,1778675478.0,223.0,0.12066373622904064,0.3360305741921507,-9.810818750566876,,,,,,,,,,
acc,1778675478.0,223.0,0.12037780386707853,0.33762968144247213,-9.812885192278165,,,,,,,,,,
acc,1778675478.0,223.0,0.12310707711169544,0.3363120959663947,-9.811964265998377,,,,,,,,,,
acc,1778675478.0,223.0,0.12545279497587222,0.33517967590002334,-9.811172761069235,,,,,,,,,,
acc,1778675478.0,223.0,0.12749065788580224,0.3341958760633245,-9.812811486461134,,,,,,,,,,
acc,1778675478.0,223.0,0.12685048249336547,0.33333317481614144,-9.812063949128843,,,,,,,,,,
acc,1778675478.0,223.0,0.1262844962258844,0.3325704509366967,-9.813462387361616,,,,,,,,,,
acc,1778675478.0,223.0,0.12578047057131614,0.33189122526519255,-9.812759727303606,,,,,,,,,,
acc,1778675478.0,223.0,0.1253287246491682,0.33128245183364363,-9.812129950202012,,,,,,,,,,
acc,1778675478.0,223.0,0.12296741462709769,0.3307336680659652,-9.81156223250492,,,,,,,,,,
acc,1778675478.0,223.0,0.12269164282261172,0.33023638548740963,-9.811047792871445,,,,,,,,,,
acc,1778675478.0,223.0,0.12244057223009626,0.3297836451070858,-9.810579432214231,,,,,,,,,,
acc,1778675478.0,223.0,0.1222110090765448,0.3293696877877282,-9.810151192696445,,,,,,,,,,
acc,1778675478.0,223.0,0.12200028749993394,0.32735100609272577,-9.811396843475421,,,,,,,,,,
acc,1778675478.0,223.0,0.1233818854394336,0.3254913392407355,-9.812544372314939,,,,,,,,,,
acc,1778675478.0,223.0,0.1231412417287109,0.3252901124944274,-9.812087343912951,,,,,,,,,,
acc,1778675478.0,223.0,0.12145421228483218,0.32363966448640447,-9.81151724585265,,,,,,,,,,
acc,1778675478.0,223.0,0.12129977662572732,0.3235192039879748,-9.811128596837115,,,,,,,,,,
acc,1778675478.0,223.0,0.12115581230899698,0.32340691118299736,-9.810766299746573,,,,,,,,,,
acc,1778675478.0,223.0,0.11969680761973715,0.32330197498294583,-9.810427737716898,,,,,,,,,,
acc,1778675478.0,223.0,0.11833025593603191,0.3232036882934529,-9.810110629406624,,,,,,,,,,
acc,1778675478.0,223.0,0.11954004750381773,0.32186519776331346,-9.809688359867478,,,,,,,,,,
acc,1778675478.0,223.0,0.12067790404439231,0.3218170550632112,-9.8094122685899,,,,,,,,,,
acc,1778675478.0,223.0,0.12175013210163411,0.3217716891036545,-9.81021181758168,,,,,,,,,,
acc,1778675478.0,223.0,0.12161628400598377,0.3217288633804152,-9.81096659636676,,,,,,,,,,
acc,1778675478.0,223.0,0.12148971771454513,0.32168836752619895,-9.81067547837241,,,,,,,,,,
acc,1778675478.0,223.0,0.12136984645147246,0.3216500137975803,-9.810399759764485,,,,,,,,,,
acc,1778675478.0,223.0,0.12019404852993044,0.321613634113727,-9.810138232237694,,,,,,,,,,
acc,1778675478.0,223.0,0.1190771741262269,0.32157907754838005,-9.80988981080814,,,,,,,,,,
acc,1778675478.0,223.0,0.11902816692076325,0.32245821852838646,-9.809653518474573,,,,,,,,,,
acc,1778675478.0,223.0,0.11898149234573491,0.32240378116371043,-9.810320206366415,,,,,,,,,,
acc,1778675478.0,223.0,0.11893698479423256,0.3223518712360785,-9.81095594103918,,,,,,,,,,
acc,1778675478.0,223.0,0.11889449399780555,0.32230231348479593,-9.811562868889629,,,,,,,,,,
acc,1778675478.0,223.0,0.11885388329128921,0.3222549485149159,-9.811306284738887,,,,,,,,,,
acc,1778675478.0,223.0,0.11881502810796402,0.32220963104211736,-9.811060792230368,,,,,,,,,,
acc,1778675478.0,223.0,0.11877781467014771,0.3221662283655204,-9.810825672500686,,,,,,,,,,
acc,1778675478.0,223.0,0.11874213884623677,0.322913550577906,-9.811389199175009,,,,,,,,,,
acc,1778675478.0,223.0,0.11870790515002408,0.32285624508529726,-9.811929946349474,,,,,,,,,,
acc,1778675478.0,223.0,0.11867502586205031,0.3228012068042348,-9.812449299619416,,,,,,,,,,
acc,1778675478.0,223.0,0.11864342025597235,0.3234955359544742,-9.812201298766988,,,,,,,,,,
acc,1778675478.0,223.0,0.11861301391559105,0.3234290261766622,-9.81196270823608,,,,,,,,,,
acc,1778675478.0,223.0,0.11858373813038084,0.32336498933614843,-9.812455261666159,,,,,,,,,,
acc,1778675478.0,223.0,0.11855552935919215,0.32330328644521905,-9.812929863010153,,,,,,,,,,
acc,1778675478.0,223.0,0.118528328753322,0.3239430729997488,-9.813387502374061,,,,,,,,,,
acc,1778675478.0,223.0,0.11850208173142418,0.3245604302669671,-9.813829098067302,,,,,,,,,,
acc,1778675478.0,223.0,0.11772334624683274,0.32515655061536636,-9.813577444987493,,,,,,,,,,
acc,1778675478.0,223.0,0.11697090475809689,0.3257325429661587,-9.813334288971408,,,,,,,,,,
acc,1778675478.0,223.0,0.11697497046398102,0.32563102838094954,-9.813099194086837,,,,,,,,,,
acc,1778675478.0,223.0,0.11625765385251056,0.32618194958988,-9.812871753881959,,,,,,,,,,
acc,1778675478.0,223.0,0.1162745948647061,0.32607506153766674,-9.812651588936342,,,,,,,,,,
acc,1778675478.0,223.0,0.11629100335340152,0.32597153340273743,-9.81306990803477,,,,,,,,,,
acc,1778675478.0,223.0,0.1169993758392797,0.32587120411316933,-9.812852056610463,,,,,,,,,,
acc,1778675478.0,223.0,0.11700267660055132,0.32577392280218737,-9.812640823457642,,,,,,,,,,
acc,1778675478.0,223.0,0.11700587874334242,0.32567954801315036,-9.812435901422424,,,,,,,,,,
acc,1778675478.0,223.0,0.11700898677249225,0.3255879469776966,-9.812237002216344,,,,,,,,,,
acc,1778675478.0,223.0,0.1176705869259357,0.325498994959313,-9.81204385499101,,,,,,,,,,
acc,1778675478.0,223.0,0.1176625465655582,0.32541257465551326,-9.811856205040007,,,,,,,,,,
acc,1778675478.0,223.0,0.11829802547372442,0.32532857565260903,-9.810966176044705,,,,,,,,,,
acc,1778675478.0,223.0,0.11891597344373513,0.3252468939277547,-9.810800337272426,,,,,,,,,,
acc,1778675478.0,223.0,0.11951713253765135,0.3251674313935512,-9.810639004132877,,,,,,,,,,
acc,1778675478.0,223.0,0.12010220306890328,0.32509009548102563,-9.809797590828998,,,,,,,,,,
acc,1778675478.0,223.0,0.1212258604595742,0.32501479875726524,-9.809039933225291,,,,,,,,,,
acc,1778675478.0,223.0,0.12177206218570118,0.32494145857439277,-9.808911135097976,,,,,,,,,,
acc,1778675478.0,223.0,0.12230427484165617,0.32486999674692557,-9.808785635689715,,,,,,,,,,
acc,1778675478.0,223.0,0.12222608547604505,0.3248003392548773,-9.808663305008526,,,,,,,,,,
acc,1778675478.0,223.0,0.12214984272914035,0.3247324159702369,-9.808544019897417,,,,,,,,,,
acc,1778675478.0,223.0,0.1220754719689428,0.32466616040470575,-9.807783621172167,,,,,,,,,,
acc,1778675478.0,223.0,0.12258289814137432,0.32460150947678934,-9.807041638475622,,,,,,,,,,
acc,1778675478.0,223.0,0.12250352976221313,0.3245384032965339,-9.806949533543277,,,,,,,,,,
acc,1778675478.0,223.0,0.12242603264589005,0.32447678496636706,-9.80685960016261,,,,,,,,,,
acc,1778675478.0,223.0,0.12291481680584053,0.32441660039665504,-9.807279806967106,,,,,,,,,,
acc,1778675478.0,223.0,0.1228327747678069,0.32435779813472276,-9.807690362541432,,,,,,,,,,
acc,1778675478.0,223.0,0.12275259302199763,0.3243003292062043,-9.80759221783703,,,,,,,,,,
acc,1778675478.0,223.0,0.12267420649064985,0.3242441469676989,-9.80749627052545,,,,,,,,,,
acc,1778675478.0,223.0,0.12259755315710803,0.3241892069698034,-9.80789365866234,,,,,,,,,,
acc,1778675478.0,223.0,0.12198114003885774,0.32462276145208946,-9.808282368072213,,,,,,,,,,
acc,1778675478.0,223.0,0.1213780257962931,0.32504696216335377,-9.808662691226234,,,,,,,,,,
acc,1778675478.0,223.0,0.12078776770472556,0.3249823458809381,-9.809034907306087,,,,,,,,,,
acc,1778675478.0,223.0,0.11968087343134585,0.32539525730173774,-9.809399282950091,,,,,,,,,,
acc,1778675478.0,223.0,0.11912219080790129,0.3253269173225608,-9.809756072949675,,,,,,,,,,
acc,1778675478.0,223.0,0.1185750047940111,0.32525998364818837,-9.810626878087044,,,,,,,,,,
acc,1778675478.0,223.0,0.11803895053326012,0.3251944116481294,-9.811479967881594,,,,,,,,,,
acc,1778675478.0,223.0,0.1175136788572159,0.3251301586109009,-9.812315898008466,,,,,,,,,,
acc,1778675478.0,223.0,0.11699885545100148,0.3255266975687358,-9.812624646901854,,,,,,,,,,
acc,1778675478.0,223.0,0.11598700904715714,0.32591543548820373,-9.812927321834753,,,,,,,,,,
acc,1778675478.0,223.0,0.1154986758760966,0.32629660876023514,-9.81322410686332,,,,,,,,,,
acc,1778675478.0,223.0,0.1150197436505793,0.3262199178293807,-9.813064652254623,,,,,,,,,,
acc,1778675478.0,223.0,0.11454993385276147,0.3265923694043551,-9.813355916587055,,,,,,,,,,
acc,1778675478.0,223.0,0.11458331836999042,0.3269578008673393,-9.813641691056187,,,,,,,,,,
acc,1778675478.0,223.0,0.11461608013789823,0.3273164156316144,-9.8134799288774,,,,,,,,,,
acc,1778675478.0,223.0,0.1146482370040898,0.32722883900858857,-9.813321153418373,,,,,,,,,,
acc,1778675478.0,223.0,0.11467980611675462,0.3271428630847334,-9.813165280009423,,,,,,,,,,
acc,1778675478.0,223.0,0.11519355679073155,0.32749293534978596,-9.813012227266407,,,,,,,,,,
acc,1778675478.0,223.0,0.11569810204621117,0.3278367349968794,-9.812861916932546,,,,,,,,,,
acc,1778675478.0,223.0,0.11571631037490626,0.3281744342080819,-9.812189141337683,,,,,,,,,,
acc,1778675478.0,223.0,0.115734198709463,0.3285061986753593,-9.812050475789295,,,,,,,,,,
acc,1778675478.0,223.0,0.11575177565023388,0.32840712809004674,-9.811394714590941,,,,,,,,,,
acc,1778675478.0,223.0,0.11623885791748409,0.32873260798793297,-9.810750261888941,,,,,,,,,,
acc,1778675478.0,223.0,0.11671761812107072,0.3286318497544811,-9.810116820009497,,,,,,,,,,
acc,1778675478.0,223.0,0.11718827307813762,0.3285327973234642,-9.809494102084447,,,,,,,,,,
acc,1778675478.0,223.0,0.11806751994520776,0.3284354067054642,-9.80934460537479,,,,,,,,,,
acc,1778675478.0,223.0,0.11893214687491212,0.3283396354787734,-9.809197594465894,,,,,,,,,,
acc,1778675478.0,223.0,0.11937001821986144,0.32824544271982575,-9.80859465840512,,,,,,,,,,
acc,1778675478.0,223.0,0.1198007353665736,0.32815278893728705,-9.808001573466491,,,,,,,,,,
acc,1778675478.0,223.0,0.12022447552979511,0.32806163600958094,-9.807418095630474,,,,,,,,,,
acc,1778675478.0,223.0,0.12064140983212417,0.3279719471256445,-9.806843989266248,,,,,,,,,,
acc,1778675478.0,223.0,0.1210517035653037,0.32788368672872,-9.806279026771906,,,,,,,,,,
acc,1778675478.0,223.0,0.1218588440648176,0.3273486812051365,-9.806215950594616,,,,,,,,,,
acc,1778675478.0,223.0,0.12225172289156747,0.3268220575632698,-9.805707624855973,,,,,,,,,,
acc,1778675478.0,223.0,0.12263849606265155,0.32630361807998787,-9.805607142637017,,,,,,,,,,
acc,1778675478.0,223.0,0.12341761516654269,0.32579317153858783,-9.805552463614058,,,,,,,,,,
acc,1778675478.0,223.0,0.1237881056961615,0.3252905329609169,-9.80545454449833,,,,,,,,,,
acc,1778675478.0,223.0,0.12415297297876424,0.32479552335256123,-9.805358111583548,,,,,,,,,,
acc,1778675478.0,223.0,0.12451234471774623,0.3243079694603662,-9.805744230013842,,,,,,,,,,
acc,1778675478.0,223.0,0.12486634455481838,0.3238277035415997,-9.806124576731705,,,,,,,,,,
acc,1778675478.0,223.0,0.1247810197323754,0.32378863564378557,-9.806065196779088,,,,,,,,,,
acc,1778675478.0,223.0,0.12469695152675712,0.32375014311637706,-9.806006691341592,,,,,,,,,,
acc,1778675478.0,223.0,0.12461411243843062,0.323281279640969,-9.806379986040685,,,,,,,,,,
acc,1778675478.0,223.0,0.12496189158900493,0.32281922202672825,-9.806747862122142,,,,,,,,,,
acc,1778675478.0,223.0,0.12530465822083017,0.3223638240194556,-9.807110436029065,,,,,,,,,,
acc,1778675479.0,224.0,0.125642519084294,0.3219149437911279,-9.807467820680571,,,,,,,,,,
acc,1778675479.0,224.0,0.1255505203129948,0.3214724437711463,-9.807820125606145,,,,,,,,,,
acc,1778675479.0,224.0,0.12503614234054852,0.3214598575789401,-9.807743779134178,,,,,,,,,,
acc,1778675479.0,224.0,0.12452897704508141,0.3210251411494899,-9.808090820736401,,,,,,,,,,
acc,1778675479.0,224.0,0.12402887617300105,0.3210174555472315,-9.808012041977385,,,,,,,,,,
acc,1778675479.0,224.0,0.12353569578001784,0.32100987629961625,-9.808312071868109,,,,,,,,,,
acc,1778675479.0,224.0,0.1230492960727,0.3210024012582841,-9.808607976679232,,,,,,,,,,
acc,1778675479.0,224.0,0.12298670221451335,0.3205778780579413,-9.80935870219249,,,,,,,,,,
acc,1778675479.0,224.0,0.12250901845454104,0.32057504700998407,-9.810057645397904,,,,,,,,,,
acc,1778675479.0,224.0,0.12203777934984843,0.32057225415702045,-9.810747158833257,,,,,,,,,,
acc,1778675479.0,224.0,0.12157285908910048,0.3209417184545844,-9.811013863255457,,,,,,,,,,
acc,1778675479.0,224.0,0.1207017070766019,0.321306258481636,-9.812101848433413,,,,,,,,,,
acc,1778675479.0,224.0,0.1198420968268829,0.3220772649023615,-9.812393954305541,,,,,,,,,,
acc,1778675479.0,224.0,0.11899380859541162,0.3228381163153176,-9.813502619339598,,,,,,,,,,
acc,1778675479.0,224.0,0.11815662858975737,0.32358900447640393,-9.814187633272764,,,,,,,,,,
acc,1778675479.0,224.0,0.11733034876394041,0.32433011598738126,-9.814455658277856,,,,,,,,,,
acc,1778675479.0,224.0,0.11651476662121153,0.3246545934823875,-9.8150865503911,,,,,,,,,,
acc,1778675479.0,224.0,0.1161157247800596,0.3249748933589697,-9.815303290464692,,,,,,,,,,
acc,1778675479.0,224.0,0.11572179243094698,0.32529109198725953,-9.815517255311311,,,,,,,,,,
acc,1778675479.0,224.0,0.11573695943973955,0.3256032637464506,-9.815728495261768,,,,,,,,,,
acc,1778675479.0,224.0,0.1157519343214912,0.3259114810913486,-9.815937059344677,,,,,,,,,,
acc,1778675479.0,224.0,0.11576672050605981,0.3262158146162801,-9.815781007783695,,,,,,,,,,
acc,1778675479.0,224.0,0.11578132133589361,0.3265163331164803,-9.815626912433633,,,,,,,,,,
acc,1778675479.0,224.0,0.11579574006889676,0.3272134968306359,-9.815434701642655,,,,,,,,,,
acc,1778675479.0,224.0,0.11620949978053174,0.3279020095051176,-9.81488530602252,,,,,,,,,,
acc,1778675479.0,224.0,0.11661815066203793,0.3281833565138827,-9.814741358343106,,,,,,,,,,
acc,1778675479.0,224.0,0.11702178047505007,0.32846124662908527,-9.814599179340064,,,,,,,,,,
acc,1778675479.0,224.0,0.1177777813472472,0.3287357387893162,-9.814061733871679,,,,,,,,,,
acc,1778675479.0,224.0,0.11852458201103011,0.32940309086770403,-9.813491200734227,,,,,,,,,,
acc,1778675479.0,224.0,0.11926233700751414,0.3300623596044921,-9.812927578213214,,,,,,,,,,
acc,1778675479.0,224.0,0.11963601964070956,0.33071367978404537,-9.812410223106113,,,,,,,,,,
acc,1778675479.0,224.0,0.120005217426416,0.3313571829782418,-9.81154457087255,,,,,,,,,,
acc,1778675479.0,224.0,0.12037000406550784,0.331599857042458,-9.811003777893628,,,,,,,,,,
acc,1778675479.0,224.0,0.12073045152785129,0.33183964447228564,-9.81046941770601,,,,,,,,,,
acc,1778675479.0,224.0,0.12108663010527926,0.33207659202931894,-9.810372265377659,,,,,,,,,,
acc,1778675479.0,224.0,0.12179051304880169,0.33195883079682587,-9.809533341246516,,,,,,,,,,
acc,1778675479.0,224.0,0.12248613059251386,0.33184245238469756,-9.809055566888125,,,,,,,,,,
acc,1778675479.0,224.0,0.12317361383597154,0.33133778713273276,-9.808544406697697,,,,,,,,,,
acc,1778675479.0,224.0,0.12350299768641701,0.3308389990213515,-9.808078106277806,,,,,,,,,,
acc,1778675479.0,224.0,0.12382856117571125,0.3303459961077595,-9.807966727461027,,,,,,,,,,
acc,1778675479.0,224.0,0.12415036366463178,0.32985868850154454,-9.807507690652558,,,,,,,,,,
acc,1778675479.0,224.0,0.12446846319838889,0.3293769883044663,-9.80740232329251,,,,,,,,,,
acc,1778675479.0,224.0,0.12439642873284888,0.32851432174021866,-9.807298163696304,,,,,,,,,,
acc,1778675479.0,224.0,0.12471110952548238,0.3280473984522847,-9.807195193470887,,,,,,,,,,
acc,1778675479.0,224.0,0.12463690123756192,0.3272004775162751,-9.807093394622168,,,,,,,,,,
acc,1778675479.0,224.0,0.12494827136241317,0.32674789278142413,-9.807415968507192,,,,,,,,,,
acc,1778675479.0,224.0,0.12487194873172379,0.32591624229312427,-9.807734899708953,,,,,,,,,,
acc,1778675479.0,224.0,0.12479648488768345,0.3250939495841563,-9.80805024227841,,,,,,,,,,
acc,1778675479.0,224.0,0.12472186716818685,0.32428087668173344,-9.808362049127005,,,,,,,,,,
acc,1778675479.0,224.0,0.12464808317619303,0.3238594477144191,-9.80867037205855,,,,,,,,,,
acc,1778675479.0,224.0,0.12457512077235165,0.3234427113780846,-9.808975261800038,,,,,,,,,,
acc,1778675479.0,224.0,0.12412142549103514,0.3230305997680416,-9.809276768031424,,,,,,,,,,
acc,1778675479.0,224.0,0.12367274836464383,0.3226230463713872,-9.809574939414416,,,,,,,,,,
acc,1778675479.0,224.0,0.12322901765920068,0.32221998602895857,-9.809869823620309,,,,,,,,,,
acc,1778675479.0,224.0,0.12279016309056259,0.3218213548985413,-9.8105415341015,,,,,,,,,,
acc,1778675479.0,224.0,0.1223561157852458,0.3214270904192858,-9.811205886588974,,,,,,,,,,
acc,1778675479.0,224.0,0.12192680824253005,0.3206579952112856,-9.811483848333285,,,,,,,,,,
acc,1778675479.0,224.0,0.12188086815653561,0.32027595681761795,-9.811758784084999,,,,,,,,,,
acc,1778675479.0,224.0,0.1214571760179417,0.32027630582710326,-9.811992913680232,,,,,,,,,,
acc,1778675479.0,224.0,0.12103806869580869,0.3198988447339615,-9.812262288433098,,,,,,,,,,
acc,1778675479.0,224.0,0.12062348328099644,0.3199028362487275,-9.812491020728393,,,,,,,,,,
acc,1778675479.0,224.0,0.12021335807570935,0.3199067848218184,-9.812717292266687,,,,,,,,,,
acc,1778675479.0,224.0,0.1198076325620637,0.31991069103588377,-9.812602228184067,,,,,,,,,,
acc,1778675479.0,224.0,0.11940624737164664,0.31991455546250647,-9.812826941275302,,,,,,,,,,
acc,1778675479.0,224.0,0.1190091442560308,0.3199183786624864,-9.812711065881134,,,,,,,,,,
acc,1778675479.0,224.0,0.11899164388060898,0.31992216118611555,-9.812596423325479,,,,,,,,,,
acc,1778675479.0,224.0,0.11897432920140251,0.31992590357344447,-9.812820498552655,,,,,,,,,,
acc,1778675479.0,224.0,0.11895719776598078,0.31992960635454043,-9.81270503613296,,,,,,,,,,
acc,1778675479.0,224.0,0.11856598643538699,0.31993327004973776,-9.812590792514031,,,,,,,,,,
acc,1778675479.0,224.0,0.11855279665100459,0.32027341027454614,-9.812477751766416,,,,,,,,,,
acc,1778675479.0,224.0,0.11816619434153822,0.32098351960677346,-9.812328546012786,,,,,,,,,,
acc,1778675479.0,224.0,0.11815684871263872,0.3216861892390342,-9.812180903463567,,,,,,,,,,
acc,1778675479.0,224.0,0.11777473263747433,0.32238151493792666,-9.812034803996607,,,,,,,,,,
acc,1778675479.0,224.0,0.11776913708059779,0.3230695907692221,-9.81155495180317,,,,,,,,,,
acc,1778675479.0,224.0,0.11776359972948998,0.32375050913905357,-9.811080091099665,,,,,,,,,,
acc,1778675479.0,224.0,0.118130001908035,0.32405247877170107,-9.810572962750724,,,,,,,,,,
acc,1778675479.0,224.0,0.11849261013602896,0.32435132162748626,-9.810814242175445,,,,,,,,,,
acc,1778675479.0,224.0,0.11885147207922772,0.32464707699004774,-9.81071888206722,,,,,,,,,,
acc,1778675479.0,224.0,0.11920663458410177,0.3249397834678118,-9.810958380400276,,,,,,,,,,
acc,1778675479.0,224.0,0.11955814369711362,0.3256001431981442,-9.810824741447737,,,,,,,,,,
acc,1778675479.0,224.0,0.12023938314889789,0.3258833505849775,-9.810692474255571,,,,,,,,,,
acc,1778675479.0,224.0,0.12091364451843147,0.3261636570176249,-9.810561561904708,,,,,,,,,,
acc,1778675479.0,224.0,0.12158101348729652,0.3264410981159508,-9.810431987759493,,,,,,,,,,
acc,1778675479.0,224.0,0.12224157431089748,0.32638311540372117,-9.81030373546118,,,,,,,,,,
acc,1778675479.0,224.0,0.12289540985106319,0.32632572302346424,-9.810582989928038,,,,,,,,,,
acc,1778675479.0,224.0,0.12354260160772,0.326268913821279,-9.810453496107266,,,,,,,,,,
acc,1778675479.0,224.0,0.12455198312338028,0.32621268076010806,-9.810325315571989,,,,,,,,,,
acc,1778675479.0,224.0,0.12518264789754915,0.3261570169171129,-9.810198432541933,,,,,,,,,,
acc,1778675479.0,224.0,0.12580694066670509,0.32610191548112244,-9.810072831491365,,,,,,,,,,
acc,1778675479.0,224.0,0.12642493736352914,0.32604736975015325,-9.809948497143436,,,,,,,,,,
acc,1778675479.0,224.0,0.12670573052565093,0.325993373128999,-9.810193179770863,,,,,,,,,,
acc,1778675479.0,224.0,0.12698370196090744,0.32593991912688647,-9.810104623947133,,,,,,,,,,
acc,1778675479.0,224.0,0.1272588848913879,0.3258870013551965,-9.810016956482084,,,,,,,,,,
acc,1778675479.0,224.0,0.12753131201948564,0.3258346135252477,-9.809930166957423,,,,,,,,,,
acc,1778675479.0,224.0,0.12780101553910836,0.3257827494461405,-9.809844245116853,,,,,,,,,,
acc,1778675479.0,224.0,0.12806802714658277,0.3253647815910413,-9.809722520596559,,,,,,,,,,
acc,1778675479.0,224.0,0.12796597094795867,0.3249509786793704,-9.809602009030167,,,,,,,,,,
acc,1778675479.0,224.0,0.12786493008442548,0.32490748937939556,-9.809848902557942,,,,,,,,,,
acc,1778675479.0,224.0,0.12776489287135145,0.3248644320636137,-9.809763941085576,,,,,,,,,,
acc,1778675479.0,224.0,0.1273000506187369,0.32445601396127216,-9.80964324532937,,,,,,,,,,
acc,1778675479.0,224.0,0.12683981152662088,0.3240516402719869,-9.809523744778494,,,,,,,,,,
acc,1778675479.0,224.0,0.12638412318813882,0.3236512649502187,-9.80907656939103,,,,,,,,,,
acc,1778675479.0,224.0,0.1262981458366619,0.32288964011986465,-9.808633809077218,,,,,,,,,,
acc,1778675479.0,224.0,0.1262130161323912,0.3221355241176906,-9.808195413919307,,,,,,,,,,
acc,1778675479.0,224.0,0.1257638849447093,0.3210239927561874,-9.80808968381527,,,,,,,,,,
acc,1778675479.0,224.0,0.12568382784966467,0.3199233890366178,-9.807656806944205,,,,,,,,,,
acc,1778675479.0,224.0,0.12524007571891935,0.3191980716543569,-9.807556206277177,,,,,,,,,,
acc,1778675479.0,224.0,0.12516498099663229,0.3184798655487433,-9.807456591935846,,,,,,,,,,
acc,1778675479.0,224.0,0.12472648592307413,0.31813281794611936,-9.807357952951817,,,,,,,,,,
acc,1778675479.0,224.0,0.12392831096049309,0.31815312237607735,-9.807624246244043,,,,,,,,,,
acc,1778675479.0,224.0,0.12313793095916509,0.31817322851336494,-9.807887938921125,,,,,,,,,,
acc,1778675479.0,224.0,0.12235526004757553,0.3181931385424307,-9.808512691539669,,,,,,,,,,
acc,1778675479.0,224.0,0.1212167403809701,0.31821285461707527,-9.809131358103185,,,,,,,,,,
acc,1778675479.0,224.0,0.12045261551027475,0.31823237886104294,-9.809744005252197,,,,,,,,,,
acc,1778675479.0,224.0,0.12005909017695973,0.3185785725591424,-9.8107138631844,,,,,,,,,,
acc,1778675479.0,224.0,0.1193063609119541,0.31892140591615104,-9.811311292751432,,,,,,,,,,
acc,1778675479.0,224.0,0.11892380596820203,0.31926091540513835,-9.811902930066944,,,,,,,,,,
acc,1778675479.0,224.0,0.11818222396699385,0.31995985952853057,-9.812525108216883,,,,,,,,,,
acc,1778675479.0,224.0,0.11744781558892976,0.3202894618596739,-9.812742430957115,,,,,,,,,,
acc,1778675479.0,224.0,0.11708295424191247,0.3206158793219306,-9.812957653759426,,,,,,,,,,
acc,1778675479.0,224.0,0.11635930074786023,0.3209391461007386,-9.813533103791695,,,,,,,,,,
acc,1778675479.0,224.0,0.11600480447178867,0.32125929592383345,-9.814103005303723,,,,,,,,,,
acc,1778675479.0,224.0,0.11601577069485257,0.32157636206962625,-9.81430537880559,,,,,,,,,,
acc,1778675479.0,224.0,0.11602663139989493,0.32189037737538007,-9.814867714498408,,,,,,,,,,
acc,1778675479.0,224.0,0.11603738770766153,0.32220137424519085,-9.81506286225388,,,,,,,,,,
acc,1778675479.0,224.0,0.11640969871640791,0.322509384657778,-9.815256136034142,,,,,,,,,,
acc,1778675479.0,224.0,0.1167784379614481,0.3228144401740904,-9.815122162380302,,,,,,,,,,
acc,1778675480.0,225.0,0.11678222737721591,0.3234779876639383,-9.814953333049619,,,,,,,,,,
acc,1778675480.0,225.0,0.11714727842723792,0.3237738835777048,-9.814822248250117,,,,,,,,,,
acc,1778675480.0,225.0,0.11783390315011912,0.32406694882403847,-9.81465630108465,,,,,,,,,,
acc,1778675480.0,225.0,0.11818900154194388,0.3243572130306328,-9.814130861970456,,,,,,,,,,
acc,1778675480.0,225.0,0.1185407090292472,0.32500566281622506,-9.813646543507323,,,,,,,,,,
acc,1778675480.0,225.0,0.11921382599097244,0.32564792586224584,-9.813527693840475,,,,,,,,,,
acc,1778675480.0,225.0,0.119880526407505,0.32592332583214567,-9.813373904900438,,,,,,,,,,
acc,1778675480.0,225.0,0.12054087683186598,0.3261961027533574,-9.813221580724095,,,,,,,,,,
acc,1778675480.0,225.0,0.12119494298300983,0.3264662837730039,-9.812746225665892,,,,,,,,,,
acc,1778675480.0,225.0,0.12184278975989563,0.326733895699485,-9.812275390656627,,,,,,,,,,
acc,1778675480.0,225.0,0.1221601818715226,0.3269989650081595,-9.811772988676163,,,,,,,,,,
acc,1778675480.0,225.0,0.12247456077988415,0.32726151784689916,-9.811275356314201,,,,,,,,,,
acc,1778675480.0,225.0,0.12278595740862869,0.32752158004151943,-9.810782444621504,,,,,,,,,,
acc,1778675480.0,225.0,0.12309440230213456,0.32745512787447906,-9.81029420524918,,,,,,,,,,
acc,1778675480.0,225.0,0.12372388233650675,0.3273893051367378,-9.810170549500139,,,,,,,,,,
acc,1778675480.0,225.0,0.12434740438099808,0.3269642464231009,-9.809688195948596,,,,,,,,,,
acc,1778675480.0,225.0,0.12496502909869758,0.3265432079524725,-9.80960615867459,,,,,,,,,,
acc,1778675480.0,225.0,0.12557681642085308,0.3261261488693619,-9.809524896764659,,,,,,,,,,
acc,1778675480.0,225.0,0.1258591870735345,0.32535343253817467,-9.809084806082952,,,,,,,,,,
acc,1778675480.0,225.0,0.12613889263386965,0.3249475212076472,-9.808972431640706,,,,,,,,,,
acc,1778675480.0,225.0,0.1260565309810583,0.32454543839673256,-9.808861117104216,,,,,,,,,,
acc,1778675480.0,225.0,0.1259749456412899,0.3241471454822054,-9.808750851780845,,,,,,,,,,
acc,1778675480.0,225.0,0.12589412879666395,0.323752604297719,-9.808641625104437,,,,,,,,,,
acc,1778675480.0,225.0,0.12581407272140752,0.3230025875850763,-9.808928542485418,,,,,,,,,,
acc,1778675480.0,225.0,0.12573476978044756,0.3222596267180694,-9.808817729442339,,,,,,,,,,
acc,1778675480.0,225.0,0.12565621242801317,0.32152365100307156,-9.809102906384451,,,,,,,,,,
acc,1778675480.0,225.0,0.1252194210754991,0.3207945905702728,-9.80899053719597,,,,,,,,,,
acc,1778675480.0,225.0,0.12442783205894205,0.32043126651566534,-9.808879223207525,,,,,,,,,,
acc,1778675480.0,225.0,0.12400249997241868,0.32007135224911415,-9.809163661816056,,,,,,,,,,
acc,1778675480.0,225.0,0.12358115732216322,0.32007356237741663,-9.809409559491737,,,,,,,,,,
acc,1778675480.0,225.0,0.12316376445598945,0.32007575178735703,-9.809653152053695,,,,,,,,,,
acc,1778675480.0,225.0,0.12275028217565004,0.3200779206845475,-9.809894462378223,,,,,,,,,,
acc,1778675480.0,225.0,0.12234067173010252,0.3200800692722543,-9.810133513080622,,,,,,,,,,
acc,1778675480.0,225.0,0.12193489480891045,0.32040484125451973,-9.810370326519056,,,,,,,,,,
acc,1778675480.0,225.0,0.12153291353577662,0.32040398938199516,-9.810963341374293,,,,,,,,,,
acc,1778675480.0,225.0,0.12113469046220474,0.32072567488046133,-9.811550812020588,,,,,,,,,,
acc,1778675480.0,225.0,0.12074018856128664,0.3210443544072512,-9.81213279308115,,,,,,,,,,
acc,1778675480.0,225.0,0.12070761198635141,0.32136005753714497,-9.812351106972335,,,,,,,,,,
acc,1778675480.0,225.0,0.12031715818005499,0.32167281351410654,-9.81292555502993,,,,,,,,,,
acc,1778675480.0,225.0,0.11957222458409165,0.3223407650887504,-9.81317233879675,,,,,,,,,,
acc,1778675480.0,225.0,0.1191923041851972,0.32300248714900853,-9.813774877544175,,,,,,,,,,
acc,1778675480.0,225.0,0.1188159253904959,0.32330004032951204,-9.813978000916459,,,,,,,,,,
acc,1778675480.0,225.0,0.11844305358414264,0.3235948209958579,-9.814179231644125,,,,,,,,,,
acc,1778675480.0,225.0,0.11843155462614073,0.32388685621279584,-9.814378588202809,,,,,,,,,,
acc,1778675480.0,225.0,0.11842016271690275,0.3238541078021841,-9.814576088865229,,,,,,,,,,
acc,1778675480.0,225.0,0.11840887681399327,0.3238216641287942,-9.814449733773142,,,,,,,,,,
acc,1778675480.0,225.0,0.11839769588635932,0.32378952222865015,-9.814646525740118,,,,,,,,,,
acc,1778675480.0,225.0,0.11838661891417411,0.32375767917004794,-9.81451956156285,,,,,,,,,,
acc,1778675480.0,225.0,0.11837564488868371,0.3237261320531147,-9.814393777359873,,,,,,,,,,
acc,1778675480.0,225.0,0.11836477281205646,0.3236948780093759,-9.81426916169405,,,,,,,,,,
acc,1778675480.0,225.0,0.11835400169723524,0.3239857096064334,-9.813752403858675,,,,,,,,,,
acc,1778675480.0,225.0,0.11834333056779242,0.32395208818818116,-9.813240442948091,,,,,,,,,,
acc,1778675480.0,225.0,0.11833275845778742,0.32391877874945757,-9.813126430036878,,,,,,,,,,
acc,1778675480.0,225.0,0.11867968486439638,0.3238857782794843,-9.812620326858857,,,,,,,,,,
acc,1778675480.0,225.0,0.11902339446652081,0.324174715344084,-9.812512015541547,,,,,,,,,,
acc,1778675480.0,225.0,0.11936391824389976,0.3241393818399662,-9.812011656842493,,,,,,,,,,
acc,1778675480.0,225.0,0.1197012868469507,0.3241043757237506,-9.811515934292299,,,,,,,,,,
acc,1778675480.0,225.0,0.11967830244179778,0.32406969384880563,-9.811024803331431,,,,,,,,,,
acc,1778675480.0,225.0,0.12001271788342173,0.32435681240042674,-9.810538219871699,,,,,,,,,,
acc,1778675480.0,225.0,0.12034403793333039,0.3243198303927235,-9.809806141294759,,,,,,,,,,
acc,1778675480.0,225.0,0.12067229225677094,0.32428319058199834,-9.809080836689606,,,,,,,,,,
acc,1778675480.0,225.0,0.12099751020743353,0.3238898216175739,-9.808326527076606,,,,,,,,,,
acc,1778675480.0,225.0,0.1209626909742869,0.32350009017983267,-9.80790053048825,,,,,,,,,,
acc,1778675480.0,225.0,0.12128518595308112,0.3231139615031838,-9.807799766833577,,,,,,,,,,
acc,1778675480.0,225.0,0.12160470063631955,0.32273140118466337,-9.807378672598714,,,,,,,,,,
acc,1778675480.0,225.0,0.12192126345834307,0.32270929450696995,-9.807318388003257,,,,,,,,,,
acc,1778675480.0,225.0,0.12223490255821036,0.32268739200291563,-9.807258660186408,,,,,,,,,,
acc,1778675480.0,225.0,0.12218879683175131,0.322986866746834,-9.807199483845038,,,,,,,,,,
acc,1778675480.0,225.0,0.12214311668417369,0.3232835771893019,-9.807461997940948,,,,,,,,,,
acc,1778675480.0,225.0,0.12209785806859776,0.3232564356549573,-9.807722089582068,,,,,,,,,,
acc,1778675480.0,225.0,0.12205301697981573,0.3235506287736813,-9.807979781785475,,,,,,,,,,
acc,1778675480.0,225.0,0.12200858945377871,0.32352105348858695,-9.808235097331716,,,,,,,,,,
acc,1778675480.0,225.0,0.12232125547602911,0.3231350669903739,-9.808880409241292,,,,,,,,,,
acc,1778675480.0,225.0,0.12227438666961814,0.32275263850898434,-9.809163119998205,,,,,,,,,,
acc,1778675480.0,225.0,0.12258457180416389,0.322373734340729,-9.809443225402008,,,,,,,,,,
acc,1778675480.0,225.0,0.12289189911384693,0.3216417292146827,-9.80972075011416,,,,,,,,,,
acc,1778675480.0,225.0,0.1228398332777971,0.32091646659059525,-9.809995718545148,,,,,,,,,,
acc,1778675480.0,225.0,0.12278824690360038,0.3205544160685738,-9.810268154857505,,,,,,,,,,
acc,1778675480.0,225.0,0.12273713546242015,0.3201956987861768,-9.81053808296878,,,,,,,,,,
acc,1778675480.0,225.0,0.122330008483253,0.31984028328019354,-9.810805526554454,,,,,,,,,,
acc,1778675480.0,225.0,0.122283086517923,0.31984458779965214,-9.811034865936431,,,,,,,,,,
acc,1778675480.0,225.0,0.12259301866925985,0.319848852716713,-9.811262095352475,,,,,,,,,,
acc,1778675480.0,225.0,0.1225437040733273,0.31985307840445437,-9.811487234679724,,,,,,,,,,
acc,1778675480.0,225.0,0.12285121293000352,0.3198572652322048,-9.81171030359554,,,,,,,,,,
acc,1778675480.0,225.0,0.12279955007747334,0.32018213449359273,-9.811931321579847,,,,,,,,,,
acc,1778675480.0,225.0,0.12274836212143166,0.3208603368453046,-9.81218593802918,,,,,,,,,,
acc,1778675480.0,225.0,0.12269764459914898,0.321532306299547,-9.812438214471552,,,,,,,,,,
acc,1778675480.0,225.0,0.12229111337774065,0.3225543811084983,-9.812688172883595,,,,,,,,,,
acc,1778675480.0,225.0,0.12188831680392638,0.3232108105125591,-9.812543956166943,,,,,,,,,,
acc,1778675480.0,225.0,0.12148921984356657,0.32386121073163415,-9.812401064054669,,,,,,,,,,
acc,1778675480.0,225.0,0.12144999764349822,0.32450563829271734,-9.812651312208276,,,,,,,,,,
acc,1778675480.0,225.0,0.12141113555477409,0.3247879709006908,-9.812543075375503,,,,,,,,,,
acc,1778675480.0,225.0,0.12137263020485016,0.32542386802153694,-9.812400218316537,,,,,,,,,,
acc,1778675480.0,225.0,0.12133447825455183,0.3256977943485563,-9.812614816078575,,,,,,,,,,
acc,1778675480.0,225.0,0.12129667639769645,0.32596920704756477,-9.812506931702005,,,,,,,,,,
acc,1778675480.0,225.0,0.12125922136072119,0.3262381296223423,-9.812720531276302,,,,,,,,,,
acc,1778675480.0,225.0,0.12122210990231637,0.32650458534509497,-9.812611695774846,,,,,,,,,,
acc,1778675480.0,225.0,0.12118533881306402,0.3264481396572131,-9.812503858462332,,,,,,,,,,
acc,1778675480.0,225.0,0.1211489049150816,0.326712651402286,-9.812005367419948,,,,,,,,,,
acc,1778675480.0,225.0,0.12111280506167077,0.32665431559713287,-9.811511446797857,,,,,,,,,,
acc,1778675480.0,225.0,0.12107703613697116,0.3265965145584952,-9.811022053964647,,,,,,,,,,
acc,1778675480.0,225.0,0.12104159505561894,0.32618326833117717,-9.810572751493565,,,,,,,,,,
acc,1778675480.0,225.0,0.1210064787624103,0.3261297657764851,-9.810091963555907,,,,,,,,,,
acc,1778675480.0,225.0,0.12097168423196945,0.32607675345377685,-9.809615580970963,,,,,,,,,,
acc,1778675480.0,225.0,0.12093720846842136,0.32602422679859083,-9.809535082994406,,,,,,,,,,
acc,1778675480.0,225.0,0.12090304850506893,0.32597218129092054,-9.809063821224237,,,,,,,,,,
acc,1778675480.0,225.0,0.12086920140407464,0.3259206124547295,-9.80859687561996,,,,,,,,,,
acc,1778675480.0,225.0,0.12083566425614654,0.32586951585747254,-9.808134206045757,,,,,,,,,,
acc,1778675480.0,225.0,0.12044657180791764,0.3258188871096243,-9.807675772755346,,,,,,,,,,
acc,1778675480.0,225.0,0.12041688769579054,0.32576872186421335,-9.807612964500802,,,,,,,,,,
acc,1778675480.0,225.0,0.12038747530309324,0.3260392658800017,-9.80755073117412,,,,,,,,,,
acc,1778675480.0,225.0,0.12035833210715606,0.3259870976911853,-9.807489067437613,,,,,,,,,,
acc,1778675480.0,225.0,0.12032945560968529,0.32593540690971917,-9.807427968005172,,,,,,,,,,
acc,1778675480.0,225.0,0.12065661873298861,0.3258841891066648,-9.80768763642811,,,,,,,,,,
acc,1778675480.0,225.0,0.12062502797751423,0.3258334398957897,-9.807624733618852,,,,,,,,,,
acc,1778675480.0,225.0,0.12059372621079563,0.32578315493311283,-9.807562406237572,,,,,,,,,,
acc,1778675480.0,225.0,0.12056271075477967,0.32573332991645515,-9.807820818665874,,,,,,,,,,
acc,1778675480.0,225.0,0.1205319789571587,0.3256839605849967,-9.808076867728808,,,,,,,,,,
acc,1778675480.0,225.0,0.12085723252987898,0.3252793383800585,-9.807974861867521,,,,,,,,,,
acc,1778675480.0,225.0,0.1211795121107637,0.32487841588277894,-9.80826505597255,,,,,,,,,,
acc,1778675480.0,225.0,0.12149884522220482,0.3244811588547303,-9.808552596952422,,,,,,,,,,
acc,1778675480.0,225.0,0.12181525912300957,0.32408753338538976,-9.808837509352118,,,,,,,,,,
acc,1778675480.0,225.0,0.1217731288192867,0.3236975058887037,-9.809119817481758,,,,,,,,,,
acc,1778675480.0,225.0,0.12208702306380856,0.3233110430996956,-9.809399545419064,,,,,,,,,,
acc,1778675480.0,225.0,0.1223980487287327,0.32328373929136645,-9.809641156110589,,,,,,,,,,
acc,1778675480.0,225.0,0.12270623231921557,0.323256684978383,-9.809880559024272,,,,,,,,,,
acc,1778675480.0,225.0,0.12265599674922074,0.3232298778561404,-9.810117774553502,,,,,,,,,,
acc,1778675480.0,225.0,0.12260622012806385,0.3235233591149971,-9.81035282289738,,,,,,,,,,
acc,1778675481.0,226.0,0.12255689821886386,0.3234941262010632,-9.810585724062726,,,,,,,,,,
acc,1778675481.0,226.0,0.12286359593955083,0.323465160305933,-9.81081649786606,,,,,,,,,,
acc,1778675481.0,226.0,0.12316749248805209,0.32343645896594714,-9.811045163935573,,,,,,,,,,
acc,1778675481.0,226.0,0.12378860811065337,0.32340801974084266,-9.811307294624601,,,,,,,,,,
acc,1778675481.0,226.0,0.12408406704066026,0.32369983418166004,-9.811211485801698,,,,,,,,,,
acc,1778675481.0,226.0,0.12437682817372858,0.3239889841028941,-9.811116551796655,,,,,,,,,,
acc,1778675481.0,226.0,0.12466691637477406,0.32395551866338607,-9.811022484546497,,,,,,,,,,
acc,1778675481.0,226.0,0.12495435627328824,0.32392235873995157,-9.810929276064588,,,,,,,,,,
acc,1778675481.0,226.0,0.12523917226573494,0.3238895015181418,-9.81083691843986,,,,,,,,,,
acc,1778675481.0,226.0,0.125521388517918,0.3238569442101176,-9.810745403836036,,,,,,,,,,
acc,1778675481.0,226.0,0.12580102896732054,0.32382468405437964,-9.810974664729162,,,,,,,,,,
acc,1778675481.0,226.0,0.12607811732541654,0.32343725062392237,-9.81084635651982,,,,,,,,,,
acc,1778675481.0,226.0,0.1259972185476701,0.32340881129670407,-9.810754763235925,,,,,,,,,,
acc,1778675481.0,226.0,0.12591705796523522,0.3233806314762249,-9.810664005733914,,,,,,,,,,
acc,1778675481.0,226.0,0.12548217897942973,0.32335270877523636,-9.81057407632528,,,,,,,,,,
acc,1778675481.0,226.0,0.12505126764257898,0.3233250408289704,-9.810484967393917,,,,,,,,,,
acc,1778675481.0,226.0,0.12462428747147707,0.32329762529491407,-9.810396671395399,,,,,,,,,,
acc,1778675481.0,226.0,0.1238457780618462,0.3232704598525865,-9.809918216895252,,,,,,,,,,
acc,1778675481.0,226.0,0.12307436992544524,0.3232435422033183,-9.809835081611379,,,,,,,,,,
acc,1778675481.0,226.0,0.12230999780565986,0.3232168700700339,-9.809752704604753,,,,,,,,,,
acc,1778675481.0,226.0,0.12190799714220033,0.32319044119703605,-9.809671078908643,,,,,,,,,,
acc,1778675481.0,226.0,0.12150966264011429,0.32316425334979293,-9.809590197621688,,,,,,,,,,
acc,1778675481.0,226.0,0.12111496062943393,0.3231383043147279,-9.80982990285259,,,,,,,,,,
acc,1778675481.0,226.0,0.12072385775576736,0.32311259189901126,-9.810067422302964,,,,,,,,,,
acc,1778675481.0,226.0,0.12033632097717033,0.3234069495138168,-9.809982940455948,,,,,,,,,,
acc,1778675481.0,226.0,0.1199523175610535,0.32369862332618254,-9.810219057954754,,,,,,,,,,
acc,1778675481.0,226.0,0.11957181508112462,0.32366781526462524,-9.810133200083227,,,,,,,,,,
acc,1778675481.0,226.0,0.11919478141436528,0.323957104496249,-9.810048124926482,,,,,,,,,,
acc,1778675481.0,226.0,0.11882118473804157,0.32424375660442756,-9.809963825303928,,,,,,,,,,
acc,1778675481.0,226.0,0.11880632853861323,0.32420799153826046,-9.809880294102067,,,,,,,,,,
acc,1778675481.0,226.0,0.11879160775108057,0.32417255246498494,-9.80979752427383,,,,,,,,,,
acc,1778675481.0,226.0,0.11877702113380649,0.3241374363954628,-9.809715508837925,,,,,,,,,,
acc,1778675481.0,226.0,0.11876256745673809,0.3241026403684438,-9.809634240878198,,,,,,,,,,
acc,1778675481.0,226.0,0.11874824550129318,0.3240681614502925,-9.809873494690136,,,,,,,,,,
acc,1778675481.0,226.0,0.11873405406024812,0.32403399673471833,-9.809790792575475,,,,,,,,,,
acc,1778675481.0,226.0,0.11871999193762689,0.3243199135612257,-9.809708844077525,,,,,,,,,,
acc,1778675481.0,226.0,0.11870605794859138,0.32428346022080934,-9.809947407193986,,,,,,,,,,
acc,1778675481.0,226.0,0.11869225091933282,0.32424733902562125,-9.810183796638574,,,,,,,,,,
acc,1778675481.0,226.0,0.11867856968696448,0.32421154693338067,-9.810418032321014,,,,,,,,,,
acc,1778675481.0,226.0,0.1186650130994155,0.3241760809301028,-9.810330384441471,,,,,,,,,,
acc,1778675481.0,226.0,0.11865158001532586,0.32414093802982397,-9.810563279636016,,,,,,,,,,
acc,1778675481.0,226.0,0.11828300596792778,0.3241061152743298,-9.810474313471172,,,,,,,,,,
acc,1778675481.0,226.0,0.11791778940516708,0.32407160973288646,-9.810386157733795,,,,,,,,,,
acc,1778675481.0,226.0,0.11720064675051912,0.3240374185019747,-9.81029880500589,,,,,,,,,,
acc,1778675481.0,226.0,0.11649003625553934,0.3243232644004534,-9.810212247938324,,,,,,,,,,
acc,1778675481.0,226.0,0.11649638360587387,0.32460650675630065,-9.81012647925015,,,,,,,,,,
acc,1778675481.0,226.0,0.11614743533595676,0.32488716939107387,-9.809650732865462,,,,,,,,,,
acc,1778675481.0,226.0,0.11615689807268456,0.32516527590545635,-9.8091793193163,,,,,,,,,,
acc,1778675481.0,226.0,0.11581104639700007,0.3251211415422107,-9.80871219896835,,,,,,,,,,
acc,1778675481.0,226.0,0.11582356787214446,0.32507740909824495,-9.808000686053923,,,,,,,,,,
acc,1778675481.0,226.0,0.11583597532215965,0.3250340748978979,-9.807935033910434,,,,,,,,,,
acc,1778675481.0,226.0,0.11584826978971673,0.3249911352995416,-9.807869979596518,,,,,,,,,,
acc,1778675481.0,226.0,0.11621565331704876,0.32494858669525506,-9.807805517646106,,,,,,,,,,
acc,1778675481.0,226.0,0.11622449501264064,0.3252261134339279,-9.807102284983156,,,,,,,,,,
acc,1778675481.0,226.0,0.11658844863287436,0.3255011132885335,-9.806654086324135,,,,,,,,,,
acc,1778675481.0,226.0,0.11659390031490142,0.32577360935531297,-9.806209968373985,,,,,,,,,,
acc,1778675481.0,226.0,0.11695448651821296,0.3260436245170018,-9.805769893838098,,,,,,,,,,
acc,1778675481.0,226.0,0.117631453860013,0.3259915084157701,-9.805369351053796,,,,,,,,,,
acc,1778675481.0,226.0,0.11830225825880084,0.3259398667666162,-9.804972454711798,,,,,,,,,,
acc,1778675481.0,226.0,0.11932213741382383,0.32588869523472164,-9.804898828384234,,,,,,,,,,
acc,1778675481.0,226.0,0.12033273244925018,0.32548282103600423,-9.804861387319097,,,,,,,,,,
acc,1778675481.0,226.0,0.1213341281727781,0.3254358062043985,-9.804788772418613,,,,,,,,,,
acc,1778675481.0,226.0,0.12232640860950372,0.32538921932915804,-9.804716818501225,,,,,,,,,,
acc,1778675481.0,226.0,0.12330965700935587,0.32566270913398165,-9.80464551953017,,,,,,,,,,
acc,1778675481.0,226.0,0.12428395585445454,0.32593370962686424,-9.804574869524368,,,,,,,,,,
acc,1778675481.0,226.0,0.12524938686639403,0.3262022435386059,-9.804504862557883,,,,,,,,,,
acc,1778675481.0,226.0,0.12585087488615182,0.32614869014833825,-9.804435492759406,,,,,,,,,,
acc,1778675481.0,226.0,0.12680204139700288,0.32641526438476554,-9.80475741963632,,,,,,,,,,
acc,1778675481.0,226.0,0.12774455136092,0.32635977527258764,-9.805076416663322,,,,,,,,,,
acc,1778675481.0,226.0,0.12832333754667935,0.32630479115178646,-9.8057476477435,,,,,,,,,,
acc,1778675481.0,226.0,0.1292519995749557,0.3262503074130511,-9.806057636311618,,,,,,,,,,
acc,1778675481.0,226.0,0.12981707059426764,0.32619631948950745,-9.806719934777414,,,,,,,,,,
acc,1778675481.0,226.0,0.13037699946469453,0.32614282285631735,-9.807376206324113,,,,,,,,,,
acc,1778675481.0,226.0,0.13061221896821573,0.3264094362635447,-9.80763587048324,,,,,,,,,,
acc,1778675481.0,226.0,0.13049017622776157,0.32667362361054764,-9.807893171817128,,,,,,,,,,
acc,1778675481.0,226.0,0.13036924399310712,0.32693540703266355,-9.808148131884156,,,,,,,,,,
acc,1778675481.0,226.0,0.13024941213275376,0.3268751930508105,-9.80840077204445,,,,,,,,,,
acc,1778675481.0,226.0,0.13013067060835545,0.32646041362889516,-9.809041736295514,,,,,,,,,,
acc,1778675481.0,226.0,0.13001300947384292,0.3264045187255233,-9.809641359385122,,,,,,,,,,
acc,1778675481.0,226.0,0.1298964188745565,0.32634913237974156,-9.810235526827523,,,,,,,,,,
acc,1778675481.0,226.0,0.12942577471451816,0.3259391447120527,-9.810859797088378,,,,,,,,,,
acc,1778675481.0,226.0,0.12895941250085013,0.3258879897796146,-9.811442879257827,,,,,,,,,,
acc,1778675481.0,226.0,0.12814218399750102,0.3258373002474521,-9.812020656628903,,,,,,,,,,
acc,1778675481.0,226.0,0.12697729277105083,0.3257870718715889,-9.812593177575962,,,,,,,,,,
acc,1778675481.0,226.0,0.12582299911098502,0.32573730044701477,-9.812805394893967,,,,,,,,,,
acc,1778675481.0,226.0,0.12467920639038663,0.3256879818073209,-9.813015681610352,,,,,,,,,,
acc,1778675481.0,226.0,0.12354581886919656,0.32563911182433847,-9.812904463101153,,,,,,,,,,
acc,1778675481.0,226.0,0.12277782971183948,0.3255906864077808,-9.813113846469834,,,,,,,,,,
acc,1778675481.0,226.0,0.12201682675601397,0.3255427015048894,-9.813321325131403,,,,,,,,,,
acc,1778675481.0,226.0,0.12126274631774749,0.3254951531000829,-9.813526916448557,,,,,,,,,,
acc,1778675481.0,226.0,0.12016044400151028,0.32544803721461,-9.814085718920403,,,,,,,,,,
acc,1778675481.0,226.0,0.11906816848388929,0.3254013499062056,-9.81428435926187,,,,,,,,,,
acc,1778675481.0,226.0,0.11798582837904838,0.3253550872687502,-9.814481192757214,,,,,,,,,,
acc,1778675481.0,226.0,0.11691333313891067,0.3253092454319326,-9.81467623587343,,,,,,,,,,
acc,1778675481.0,226.0,0.1158505930453477,0.32526382056091657,-9.814549928429482,,,,,,,,,,
acc,1778675481.0,226.0,0.11479751920244485,0.32553838354373216,-9.814034184601514,,,,,,,,,,
acc,1778675481.0,226.0,0.11375402352884235,0.3254908763444968,-9.814233287654982,,,,,,,,,,
acc,1778675481.0,226.0,0.11307508570437606,0.32544380123697675,-9.814111008642003,,,,,,,,,,
acc,1778675481.0,226.0,0.11275739705646146,0.32539715428423016,-9.813989841773973,,,,,,,,,,
acc,1778675481.0,226.0,0.11279767005786222,0.32535093158537365,-9.813869776918231,,,,,,,,,,
acc,1778675481.0,226.0,0.11283757678216703,0.32530512927524696,-9.813750804034907,,,,,,,,,,
acc,1778675481.0,226.0,0.11252205193085113,0.32557930802277313,-9.813632913176058,,,,,,,,,,
acc,1778675481.0,226.0,0.11220939664490154,0.32585099323029826,-9.813516094484818,,,,,,,,,,
acc,1778675481.0,226.0,0.11225464991379447,0.3261202076120886,-9.813400338194551,,,,,,,,,,
acc,1778675481.0,226.0,0.11229949163537752,0.3260674138666445,-9.812895067589176,,,,,,,,,,
acc,1778675481.0,226.0,0.1123439255582098,0.326334658537606,-9.812394392006347,,,,,,,,,,
acc,1778675481.0,226.0,0.11274300641112413,0.32627991605068235,-9.81189826959429,,,,,,,,,,
acc,1778675481.0,226.0,0.11313845805116061,0.32654522675516345,-9.811406658884144,,,,,,,,,,
acc,1778675481.0,226.0,0.11353031353071112,0.32648857083545196,-9.811310078653667,,,,,,,,,,
acc,1778675481.0,226.0,0.11423814904948218,0.3264324301268463,-9.810859330435877,,,,,,,,,,
acc,1778675481.0,226.0,0.11493954781863304,0.3263767999375283,-9.810732223201008,,,,,,,,,,
acc,1778675481.0,226.0,0.11563456845276238,0.32664122543078483,-9.810286731086517,,,,,,,,,,
acc,1778675481.0,226.0,0.11600372963397187,0.32690324641409596,-9.809809778534898,,,,,,,,,,
acc,1778675481.0,226.0,0.11636953394979968,0.3271628847818643,-9.809727714628735,,,,,,,,,,
acc,1778675481.0,226.0,0.11705154878048325,0.327420162228338,-9.809610894868253,,,,,,,,,,
acc,1778675481.0,226.0,0.11740782648676062,0.3276751002494621,-9.809530639281808,,,,,,,,,,
acc,1778675481.0,226.0,0.11808039892205664,0.32760817672917786,-9.80980615866117,,,,,,,,,,
acc,1778675481.0,226.0,0.11874685579372354,0.3275418617307793,-9.809688627274838,,,,,,,,,,
acc,1778675481.0,226.0,0.1197622953212126,0.3274761497143132,-9.809572164565338,,,,,,,,,,
acc,1778675481.0,226.0,0.12041346062405221,0.32741103519044507,-9.809456760803815,,,,,,,,,,
acc,1778675481.0,226.0,0.12105870521030966,0.3273465127199918,-9.809342406350297,,,,,,,,,,
acc,1778675481.0,226.0,0.12137855448841652,0.32760211449051024,-9.809584130375528,,,,,,,,,,
acc,1778675481.0,226.0,0.1216954956003246,0.32753585578059263,-9.809823656572947,,,,,,,,,,
acc,1778675481.0,226.0,0.12200955501757126,0.3274701995086784,-9.810061004948244,,,,,,,,,,
acc,1778675481.0,226.0,0.12196573295337822,0.3274051401912522,-9.809976661002967,,,,,,,,,,
acc,1778675481.0,226.0,0.12227733417474942,0.32734067239487363,-9.810212617190361,,,,,,,,,,
acc,1778675481.0,226.0,0.12258610233707481,0.3272767907357152,-9.810446428078683,,,,,,,,,,
acc,1778675482.0,227.0,0.12253704063300204,0.3268584672869384,-9.81106863622681,,,,,,,,,,
acc,1778675482.0,227.0,0.12248842498646534,0.3267989686288571,-9.81164968707257,,,,,,,,,,
acc,1778675482.0,227.0,0.12244025133794303,0.3263849905024081,-9.812260955412023,,,,,,,,,,
acc,1778675482.0,227.0,0.12203748722603479,0.3263297954498589,-9.812476146876547,,,,,,,,,,
acc,1778675482.0,227.0,0.12163838485185154,0.3262751022041991,-9.8126893819237,,,,,,,,,,
acc,1778675482.0,227.0,0.12159793726723392,0.32622090619890587,-9.812900678357197,,,,,,,,,,
acc,1778675482.0,227.0,0.12120283203643546,0.32616720290912965,-9.812400003078624,,,,,,,,,,
acc,1778675482.0,227.0,0.12081131882022171,0.3261139878513106,-9.812294403677505,,,,,,,,,,
acc,1778675482.0,227.0,0.12042336493317905,0.32606125658279883,-9.81250928810302,,,,,,,,,,
acc,1778675482.0,227.0,0.12003893798810733,0.32600900470147787,-9.812402696040335,,,,,,,,,,
acc,1778675482.0,227.0,0.11930298436262214,0.32560221540317175,-9.812261573586458,,,,,,,,,,
acc,1778675482.0,227.0,0.11857372128689725,0.32519912422380687,-9.812121734075918,,,,,,,,,,
acc,1778675482.0,227.0,0.11749607726100017,0.32547422860984476,-9.811628146122029,,,,,,,,,,
acc,1778675482.0,227.0,0.1157537005263645,0.32542731238835,-9.811174553549703,,,,,,,,,,
acc,1778675482.0,227.0,0.11402716336951696,0.3257003415645011,-9.810405565599147,,,,,,,,,,
acc,1778675482.0,227.0,0.1119613136608016,0.32565137058305255,-9.809324059267452,,,,,,,,,,
acc,1778675482.0,227.0,0.1102692510683762,0.3256028447800123,-9.808571892822972,,,,,,,,,,
acc,1778675482.0,227.0,0.10859257032930755,0.32587427673796837,-9.80640652038936,,,,,,,,,,
acc,1778675482.0,227.0,0.10693113150858559,0.3258237253287364,-9.805680872742672,,,,,,,,,,
acc,1778675482.0,227.0,0.10528479594707796,0.325773633455557,-9.804287310704463,,,,,,,,,,
acc,1778675482.0,227.0,0.10400843932432265,0.32572399693801196,-9.802870918134712,,,,,,,,,,
acc,1778675482.0,227.0,0.10238867291951285,0.3256748116337942,-9.802177407514515,,,,,,,,,,
acc,1778675482.0,227.0,0.10078363066442433,0.32594558656952205,-9.800815694592822,,,,,,,,,,
acc,1778675482.0,227.0,0.09954818944504958,0.32553938589277875,-9.799111349137194,,,,,,,,,,
acc,1778675482.0,227.0,0.0976139674928974,0.325491878666103,-9.797742008304457,,,,,,,,,,
acc,1778675482.0,227.0,0.09605232816130542,0.3254448032860064,-9.796065603770936,,,,,,,,,,
acc,1778675482.0,227.0,0.09450488424043602,0.3253981558244066,-9.794404437871849,,,,,,,,,,
acc,1778675482.0,227.0,0.09297150661092193,0.32535193238902,-9.792758371998818,,,,,,,,,,
acc,1778675482.0,227.0,0.09038706349333162,0.32530612912303336,-9.791801776386448,,,,,,,,,,
acc,1778675482.0,227.0,0.08608660455769747,0.32490574461517335,-9.791208873735187,,,,,,,,,,
acc,1778675482.0,227.0,0.08079572508209996,0.3248639964894023,-9.791295865582727,,,,,,,,,,
acc,1778675482.0,227.0,0.07484293701872752,0.32446763154101804,-9.790743069705767,,,,,,,,,,
acc,1778675482.0,227.0,0.06858926272346329,0.3244298651376849,-9.79044379195498,,,,,,,,,,
acc,1778675482.0,227.0,0.06310243178701559,0.32471194848627283,-9.79053773639877,,,,,,,,,,
acc,1778675482.0,227.0,0.05663597039988278,0.3246719618660882,-9.789281835229357,,,,,,,,,,
acc,1778675482.0,227.0,0.0442998199740947,0.3246323387093106,-9.78903134529961,,,,,,,,,,
acc,1778675482.0,227.0,0.029626317182376214,0.32423808241792995,-9.790203123564082,,,,,,,,,,
acc,1778675482.0,227.0,0.012991703585981083,0.3231374152010878,-9.791328744364794,,,,,,,,,,
acc,1778675482.0,227.0,-0.005231200482954813,0.3224017537414152,-9.791734149518543,,,,,,,,,,
acc,1778675482.0,227.0,-0.0246729465634123,0.3216727790400886,-9.79320085368758,,,,,,,,,,
acc,1778675482.0,227.0,-0.04603245508037203,0.3205954301271486,-9.79394423515008,,,,,,,,,,
acc,1778675482.0,227.0,-0.06893729282708089,0.3188533806981377,-9.794325869202778,,,,,,,,,,
acc,1778675482.0,227.0,-0.09369291403705783,0.31780165727353027,-9.796124012722517,,,,,,,,,,
acc,1778675482.0,227.0,-0.1199984900184766,0.31640449466674064,-9.797195815201242,,,,,,,,,,
acc,1778675482.0,227.0,-0.14744944520825692,0.3147005392925029,-9.79825787580076,,,,,,,,,,
acc,1778675482.0,227.0,-0.17639035661291966,0.3130120715272344,-9.79970077774622,,,,,,,,,,
acc,1778675482.0,227.0,-0.20819215374121197,0.3113389505374815,-9.801805053073481,,,,,,,,,,
acc,1778675482.0,227.0,-0.2410893714737407,0.30932604921473517,-9.802825221508055,,,,,,,,,,
acc,1778675482.0,227.0,-0.27475255346641253,0.30697644717462164,-9.80454610988715,,,,,,,,,,
acc,1778675482.0,227.0,-0.3091392498564431,0.30500319653954067,-9.806606343633701,,,,,,,,,,
acc,1778675482.0,227.0,-0.3432134045451024,0.30304788083789225,-9.80758287512993,,,,,,,,,,
acc,1778675482.0,227.0,-0.37836232378423423,0.3011103369916094,-9.808905525765127,,,,,,,,,,
acc,1778675482.0,227.0,-0.4142567408515697,0.29919040340726283,-9.811316625691488,,,,,,,,,,
acc,1778675482.0,227.0,-0.4508543831823435,0.2976429048445386,-9.811930859628976,,,,,,,,,,
acc,1778675482.0,227.0,-0.48885883720128287,0.29610947133586946,-9.814314460440796,,,,,,,,,,
acc,1778675482.0,227.0,-0.5258434023665282,0.29423499094321526,-9.815575930104197,,,,,,,,,,
acc,1778675482.0,227.0,-0.5635212844754512,0.29237754739037786,-9.816861431027608,,,,,,,,,,
acc,1778675482.0,227.0,-0.6005017274083094,0.29089196902991493,-9.819519702972446,,,,,,,,,,
acc,1778675482.0,227.0,-0.6378560474153817,0.28973937915004716,-9.821479336137912,,,,,,,,,,
acc,1778675482.0,227.0,-0.6762553062045678,0.28827777880990996,-9.82338566227041,,,,,,,,,,
acc,1778675482.0,227.0,-0.7153350241401252,0.28714894825323345,-9.826623616176892,,,,,,,,,,
acc,1778675482.0,227.0,-0.7544145496442868,0.28535591015565315,-9.828838170652089,,,,,,,,,,
acc,1778675482.0,227.0,-0.793848866579332,0.2842536348072523,-9.83177807505699,,,,,,,,,,
acc,1778675482.0,227.0,-0.8335992544571768,0.28316137763151616,-9.83291632736773,,,,,,,,,,
acc,1778675482.0,227.0,-0.8736983372875086,0.2824340373124534,-9.83546417543983,,,,,,,,,,
acc,1778675482.0,227.0,-0.9141429462992723,0.2813583180584931,-9.837953370984128,,,,,,,,,,
acc,1778675482.0,227.0,-0.9548944453499835,0.2802923755331305,-9.8404199433494,,,,,,,,,,
acc,1778675482.0,227.0,-0.9959855327308895,0.2792361208528332,-9.843503074338772,,,,,,,,,,
acc,1778675482.0,227.0,-1.038087603218669,0.2775150033680178,-9.845919208747725,,,,,,,,,,
acc,1778675482.0,227.0,-1.0805169972327868,0.27545454010090437,-9.847958396063753,,,,,,,,,,
acc,1778675482.0,227.0,-1.123590222965559,0.27341280325294,-9.8493045889484,,,,,,,,,,
acc,1778675482.0,227.0,-1.167336934229402,0.2713896225814786,-9.850993525466496,,,,,,,,,,
acc,1778675482.0,227.0,-1.2127449525561573,0.26938482939286734,-9.85302209944349,,,,,,,,,,
acc,1778675482.0,227.0,-1.258805237131463,0.26704327871548306,-9.854677250067178,,,,,,,,,,
acc,1778675482.0,227.0,-1.305476355054291,0.264368022279626,-9.856672344699017,,,,,,,,,,
acc,1778675482.0,227.0,-1.3520782964874725,0.2620720657991755,-9.858613802246106,,,,,,,,,,
acc,1778675482.0,227.0,-1.3979017187700449,0.25979697569354876,-9.860218134136565,,,,,,,,,,
acc,1778675482.0,227.0,-1.4433086843501148,0.25754256227412503,-9.862517847842167,,,,,,,,,,
acc,1778675482.0,227.0,-1.4883029790576692,0.25495365207700704,-9.864761165299303,,,,,,,,,,
acc,1778675482.0,227.0,-1.531858912545756,0.2523882705478593,-9.866664614571102,,,,,,,,,,
acc,1778675482.0,227.0,-1.5746640237288165,0.24984620380050968,-9.869225229948027,,,,,,,,,,
acc,1778675482.0,227.0,-1.616050663661074,0.2473272398945045,-9.87073312458112,,,,,,,,,,
acc,1778675482.0,227.0,-1.6573806535044702,0.24451168915571606,-9.872582299647405,,,,,,,,,,
acc,1778675482.0,227.0,-1.6983350292329593,0.24204120607035917,-9.875089132753738,,,,,,,,,,
acc,1778675482.0,227.0,-1.7385977260376675,0.23994815909930547,-9.876508240514832,,,,,,,,,,
acc,1778675482.0,227.0,-1.7791689727202311,0.23787413402436086,-9.87826942588824,,,,,,,,,,
acc,1778675482.0,227.0,-1.8197264866283387,0.23581895793447233,-9.880405084537092,,,,,,,,,,
acc,1778675482.0,227.0,-1.8602703839701809,0.23449241696898443,-9.881101419150356,,,,,,,,,,
acc,1778675482.0,227.0,-1.9011557720337344,0.233177931717967,-9.882146408474613,,,,,,,,,,
acc,1778675482.0,227.0,-1.9419890691862787,0.2311654360088077,-9.882471944280175,,,,,,,,,,
acc,1778675482.0,227.0,-1.9831612274804264,0.22952620349258712,-9.883149495133335,,,,,,,,,,
acc,1778675482.0,227.0,-2.0236042385346886,0.22790186837502632,-9.883430410459987,,,,,,,,,,
acc,1778675482.0,227.0,-2.0636797028380753,0.2262922952417795,-9.883353799712179,,,,,,,,,,
acc,1778675482.0,227.0,-2.1030359793050093,0.22540730480995894,-9.882958407769811,,,,,,,,,,
acc,1778675482.0,227.0,-2.1413601274789587,0.2241753844530763,-9.883241059100083,,,,,,,,,,
acc,1778675482.0,227.0,-2.179335986957809,0.22330963225803033,-9.882101233500686,,,,,,,,,,
acc,1778675482.0,227.0,-2.215901797524289,0.22209677566677657,-9.881326747984826,,,,,,,,,,
acc,1778675482.0,227.0,-2.251460842268218,0.22018498811149356,-9.880914282156283,,,,,,,,,,
acc,1778675482.0,227.0,-2.2863417571348634,0.21900052769596848,-9.879547126022219,,,,,,,,,,
acc,1778675482.0,227.0,-2.320905677349839,0.21747185071285607,-9.878795851910787,,,,,,,,,,
acc,1778675482.0,227.0,-2.3548005035579602,0.2163120468467701,-9.876383015292218,,,,,,,,,,
acc,1778675482.0,227.0,-2.389416725485808,0.21516278314289514,-9.875021534196826,,,,,,,,,,
acc,1778675482.0,227.0,-2.4226889322539034,0.21331401227201202,-9.873317454845122,,,,,,,,,,
acc,1778675482.0,227.0,-2.4556587659785567,0.21286644075924674,-9.871273890873786,,,,,,,,,,
acc,1778675482.0,227.0,-2.489038925859969,0.21174849021578457,-9.86924889849217,,,,,,,,,,
acc,1778675482.0,227.0,-2.522115732495935,0.20993074889870048,-9.867987754671837,,,,,,,,,,
acc,1778675482.0,227.0,-2.5548919431241863,0.20745507192686058,-9.866028121701916,,,,,,,,,,
acc,1778675482.0,227.0,-2.5870153195149883,0.20567634808263374,-9.86405080227413,,,,,,,,,,
acc,1778675482.0,227.0,-2.618846765282759,0.2042687591532518,-9.862801392796115,,,,,,,,,,
acc,1778675482.0,227.0,-2.6500339546373084,0.2025189919991676,-9.860143439160217,,,,,,,,,,
acc,1778675482.0,227.0,-2.681292701000374,0.20185004522141442,-9.858610063554266,,,,,,,,,,
acc,1778675482.0,227.0,-2.7126223452010474,0.20186163117265687,-9.857055127734792,,,,,,,,,,
acc,1778675482.0,227.0,-2.7433123038580116,0.20187311183369805,-9.854839869553208,,,,,,,,,,
acc,1778675482.0,227.0,-2.7733683816657706,0.20121003520556874,-9.852999721642469,,,,,,,,,,
acc,1778675482.0,227.0,-2.8024413702711994,0.2001980150752095,-9.851140801372738,,,,,,,,,,
acc,1778675482.0,227.0,-2.830575708495469,0.19919519189552018,-9.84933426954579,,,,,,,,,,
acc,1778675482.0,227.0,-2.8588093392507075,0.19887592516284075,-9.84786362894396,,,,,,,,,,
acc,1778675482.0,227.0,-2.887460843318526,0.19824008595045062,-9.846051384118159,,,,,,,,,,
acc,1778675482.0,227.0,-2.916206940387029,0.19654510947747827,-9.84496554605423,,,,,,,,,,
acc,1778675482.0,227.0,-2.9439818557977326,0.19557548288395002,-9.844173554327169,,,,,,,,,,
acc,1778675482.0,227.0,-2.9718593397489945,0.19461466793185708,-9.842039866653698,,,,,,,,,,
acc,1778675482.0,227.0,-2.999838451187785,0.1936625845347943,-9.841309966147303,,,,,,,,,,
acc,1778675482.0,227.0,-3.0282732441167264,0.19307412166420804,-9.840302720419535,,,,,,,,,,
acc,1778675482.0,227.0,-3.0567691051859263,0.1924910065303891,-9.83990807958625,,,,,,,,,,
acc,1778675482.0,227.0,-3.0846865333774587,0.1929426179962925,-9.839517025101914,,,,,,,,,,
acc,1778675482.0,227.0,-3.111640313576179,0.19303514832178137,-9.839165019352226,,,,,,,,,,
acc,1778675482.0,227.0,-3.1383491483301316,0.19209742004585098,-9.839171189448814,,,,,,,,,,
acc,1778675482.0,227.0,-3.1658446812384016,0.19219763087298236,-9.83914180851571,,,,,,,,,,
acc,1778675483.0,228.0,-3.19344532266696,0.19229693102488776,-9.840532583356962,,,,,,,,,,
acc,1778675483.0,228.0,-3.2194107475127183,0.19204035214780035,-9.841200766152895,,,,,,,,,,
acc,1778675483.0,228.0,-3.244430265600781,0.1917861049509683,-9.841543404273999,,,,,,,,,,
acc,1778675483.0,228.0,-3.2702873372783876,0.19188914466659318,-9.842237905071125,,,,,,,,,,
acc,1778675483.0,228.0,-3.2969388471259884,0.19199124800250936,-9.843245566879357,,,,,,,,,,
acc,1778675483.0,228.0,-3.32299318373021,0.19141797500425303,-9.844279566403308,,,,,,,,,,
acc,1778675483.0,228.0,-3.348136311161808,0.19084991165067772,-9.845268674522611,,,,,,,,,,
acc,1778675483.0,228.0,-3.3730509494546452,0.18993204365021218,-9.84660377011555,,,,,,,,,,
acc,1778675483.0,228.0,-3.3984136140274606,0.18902251680389115,-9.848317194704135,,,,,,,,,,
acc,1778675483.0,228.0,-3.4239007706201163,0.18847622206381595,-9.849305105899996,,,,,,,,,,
acc,1778675483.0,228.0,-3.4491563122402176,0.18825436360599995,-9.850958487011505,,,,,,,,,,
acc,1778675483.0,228.0,-3.4735078964588673,0.18736008296916076,-9.852596843005164,,,,,,,,,,
acc,1778675483.0,228.0,-3.4976381855696848,0.1864739291107761,-9.854930252506875,,,,,,,,,,
acc,1778675483.0,228.0,-3.5218686623370594,0.18595079458080546,-9.857632927475471,,,,,,,,,,
acc,1778675483.0,228.0,-3.5462339202901885,0.18575188554001257,-9.85885566362528,,,,,,,,,,
acc,1778675483.0,228.0,-3.5700227840214267,0.18452537107610176,-9.860812724557368,,,,,,,,,,
acc,1778675483.0,228.0,-3.5929210294589224,0.18401994394424664,-9.862006564533962,,,,,,,,,,
acc,1778675483.0,228.0,-3.6159661538222903,0.18454853149557357,-9.86216013389518,,,,,,,,,,
acc,1778675483.0,228.0,-3.6388018564111175,0.18436236534399572,-9.864442130983548,,,,,,,,,,
acc,1778675483.0,228.0,-3.661075074546944,0.18453286598413735,-9.86457356769121,,,,,,,,,,
acc,1778675483.0,228.0,-3.683500851693291,0.1843468422684046,-9.865413750764976,,,,,,,,,,
acc,1778675483.0,228.0,-3.705012895109971,0.18384303801575275,-9.866601273584045,,,,,,,,,,
acc,1778675483.0,228.0,-3.725619508570547,0.18366328300785023,-9.866713089566218,,,,,,,,,,
acc,1778675483.0,228.0,-3.7474587414426304,0.18281072498915074,-9.866433429047136,,,,,,,,,,
acc,1778675483.0,228.0,-3.770128931910095,0.18161093988116597,-9.866866241053286,,,,,,,,,,
acc,1778675483.0,228.0,-3.7918831595269435,0.1814514685752644,-9.866940154416138,,,,,,,,,,
acc,1778675483.0,228.0,-3.81241028667019,0.18129344645226161,-9.86570000947116,,,,,,,,,,
acc,1778675483.0,228.0,-3.832750875271781,0.18010744988571276,-9.866139485983002,,,,,,,,,,
acc,1778675483.0,228.0,-3.852906620587399,0.17928720534217735,-9.865900532908148,,,,,,,,,,
acc,1778675483.0,228.0,-3.872524237229603,0.1788293799277039,-9.865983221824868,,,,,,,,,,
acc,1778675483.0,228.0,-3.8919635807212174,0.1783757149563947,-9.86571019414291,,,,,,,,,,
acc,1778675483.0,228.0,-3.9112262711944847,0.17757120750861907,-9.865439647571701,,,,,,,,,,
acc,1778675483.0,228.0,-3.9303139140555117,0.1757090976121749,-9.866981897672549,,,,,,,,,,
acc,1778675483.0,228.0,-3.9488731260407484,0.17354443912042583,-9.868155167759594,,,,,,,,,,
acc,1778675483.0,228.0,-3.9672636833672437,0.17104448677641068,-9.86825286292204,,,,,,,,,,
acc,1778675483.0,228.0,-3.9844577097040377,0.16959666148638955,-9.868349670291606,,,,,,,,,,
acc,1778675483.0,228.0,-4.002524896376321,0.16816199312590446,-9.867096718902996,,,,,,,,,,
acc,1778675483.0,228.0,-4.020427899847842,0.16571095340758119,-9.866849067606983,,,,,,,,,,
acc,1778675483.0,228.0,-4.038523185983866,0.1639566219481477,-9.864899814393489,,,,,,,,,,
acc,1778675483.0,228.0,-4.055779589967376,0.16257320647596507,-9.864991596916502,,,,,,,,,,
acc,1778675483.0,228.0,-4.072524214240854,0.16226726549433318,-9.863059223507715,,,,,,,,,,
acc,1778675483.0,228.0,-4.089471638753143,0.16263854826195157,-9.861144410258527,,,,,,,,,,
acc,1778675483.0,228.0,-4.1072944640625755,0.16300645705338632,-9.860205407195966,,,,,,,,,,
acc,1778675483.0,228.0,-4.124600362748415,0.16301604898992564,-9.857571085992918,,,,,,,,,,
acc,1778675483.0,228.0,-4.142103961224832,0.16338052725339336,-9.85499620747698,,,,,,,,,,
acc,1778675483.0,228.0,-4.159093534228619,0.16338671993516926,-9.852799692109706,,,,,,,,,,
acc,1778675483.0,228.0,-4.175928717301856,0.16271842233444678,-9.850268172901433,,,,,,,,,,
acc,1778675483.0,228.0,-4.191936470489841,0.16134626015855355,-9.847369190484743,,,,,,,,,,
acc,1778675483.0,228.0,-4.208473198906977,0.1596315939626754,-9.845241984201063,,,,,,,,,,
acc,1778675483.0,228.0,-4.225214616892403,0.15654812921818262,-9.843489081792388,,,,,,,,,,
acc,1778675483.0,228.0,-4.242158873465848,0.15210831388710278,-9.839977260648682,,,,,,,,,,
acc,1778675483.0,228.0,-4.259978558968377,0.14841878183191096,-9.8386271643346,,,,,,,,,,
acc,1778675483.0,228.0,-4.277636311394106,0.1444078045783428,-9.83654390500046,,,,,,,,,,
acc,1778675483.0,228.0,-4.293394258713906,0.14146268284414254,-9.835225008574048,,,,,,,,,,
acc,1778675483.0,228.0,-4.309363972684445,0.14028367684857607,-9.83423756675186,,,,,,,,,,
acc,1778675483.0,228.0,-4.326572944304049,0.1391153848395749,-9.83389804590335,,,,,,,,,,
acc,1778675483.0,228.0,-4.344335469670804,0.13657333030051982,-9.83224822946109,,,,,,,,,,
acc,1778675483.0,228.0,-4.361581617817038,0.13440934910620506,-9.832281759110165,,,,,,,,,,
acc,1778675483.0,228.0,-4.378316072217286,0.13329443860649443,-9.831960011166824,,,,,,,,,,
acc,1778675483.0,228.0,-4.394898455730317,0.13218965962495613,-9.83132171782675,,,,,,,,,,
acc,1778675483.0,228.0,-4.410655708307909,0.13109492009041784,-9.832073594327435,,,,,,,,,,
acc,1778675483.0,228.0,-4.426944212144902,0.12965515597853977,-9.830404863322293,,,,,,,,,,
acc,1778675483.0,228.0,-4.445179012432076,0.12893841183574373,-9.830135665759926,,,,,,,,,,
acc,1778675483.0,228.0,-4.462893135228038,0.13067745909979117,-9.831288787180428,,,,,,,,,,
acc,1778675483.0,228.0,-4.478706943211405,0.1320457395557266,-9.831011557290415,,,,,,,,,,
acc,1778675483.0,228.0,-4.49370260506389,0.13201720816583828,-9.831411288346844,,,,,,,,,,
acc,1778675483.0,228.0,-4.508207033690767,0.1319889360485134,-9.831452423403109,,,,,,,,,,
acc,1778675483.0,228.0,-4.5246739612903815,0.1337002620020771,-9.830534768657463,,,,,,,,,,
acc,1778675483.0,228.0,-4.540991249484149,0.13607047817591336,-9.831684262830423,,,,,,,,,,
acc,1778675483.0,228.0,-4.556450331243326,0.14015850550054135,-9.831403439306293,,,,,,,,,,
acc,1778675483.0,228.0,-4.570384554943728,0.14282500654675276,-9.83290001201349,,,,,,,,,,
acc,1778675483.0,228.0,-4.584866586939411,0.14408289922159156,-9.833282582134519,,,,,,,,,,
acc,1778675483.0,228.0,-4.600281925173917,0.14600380237148347,-9.834762078488653,,,,,,,,,,
acc,1778675483.0,228.0,-4.615202216932153,0.148617185512709,-9.835837663352724,,,,,,,,,,
acc,1778675483.0,228.0,-4.629631951802373,0.15227171914578408,-9.836548501719838,,,,,,,,,,
acc,1778675483.0,228.0,-4.642901155632865,0.15589304310522156,-9.837643347382603,,,,,,,,,,
acc,1778675483.0,228.0,-4.654984870975809,0.1591264959427582,-9.839402684969256,,,,,,,,,,
acc,1778675483.0,228.0,-4.667668714099327,0.1612656577715843,-9.84114603501653,,,,,,,,,,
acc,1778675483.0,228.0,-4.681976644703011,0.16445028824599908,-9.842909037312065,,,,,,,,,,
acc,1778675483.0,228.0,-4.694060243893604,0.16796094236426204,-9.847034304674905,,,,,,,,,,
acc,1778675483.0,228.0,-4.705359595611573,0.17108473117673725,-9.849098771220076,,,,,,,,,,
acc,1778675483.0,228.0,-4.716556267391592,0.17382516116610516,-9.851818918277663,,,,,,,,,,
acc,1778675483.0,228.0,-4.7283256331045465,0.17547578985925444,-9.854159374531589,,,,,,,,,,
acc,1778675483.0,228.0,-4.74137241464905,0.17643697816970508,-9.85615909392747,,,,,,,,,,
acc,1778675483.0,228.0,-4.755365544308868,0.1766794967655909,-9.856685267488318,,,,,,,,,,
acc,1778675483.0,228.0,-4.767847139359292,0.17589040788062962,-9.85827156681592,,,,,,,,,,
acc,1778675483.0,228.0,-4.779505376175453,0.17301417887596893,-9.85810411240188,,,,,,,,,,
acc,1778675483.0,228.0,-4.793151982527005,0.168779711239008,-9.85790268520481,,,,,,,,,,
acc,1778675483.0,228.0,-4.807384514031799,0.1652581636926361,-9.859868387873572,,,,,,,,,,
acc,1778675483.0,228.0,-4.82148771128628,0.16073921384630513,-9.858940984398954,,,,,,,,,,
acc,1778675483.0,228.0,-4.835462749603074,0.156261328717521,-9.860151822255727,,,,,,,,,,
acc,1778675483.0,228.0,-4.848955821637382,0.1518241351347893,-9.861387151428916,,,,,,,,,,
acc,1778675483.0,228.0,-4.862326279122241,0.14813719814297088,-9.859807010060338,,,,,,,,,,
acc,1778675483.0,228.0,-4.877314583343416,0.1451581963934548,-9.858276722253203,,,,,,,,,,
acc,1778675483.0,228.0,-4.891456750806575,0.14359064051431844,-9.857115312424193,,,,,,,,,,
acc,1778675483.0,228.0,-4.904086030356789,0.1420373293573363,-9.855964456579601,,,,,,,,,,
acc,1778675483.0,228.0,-4.916955507699445,0.14049813347535253,-9.854114124140695,,,,,,,,,,
acc,1778675483.0,228.0,-4.930737449366235,0.13932789645811525,-9.852280606070881,,,,,,,,,,
acc,1778675483.0,228.0,-4.943364739600336,0.13923319098779244,-9.849753814974127,,,,,,,,,,
acc,1778675483.0,228.0,-4.954457413841289,0.13807444882655986,-9.847604948102344,,,,,,,,,,
acc,1778675483.0,228.0,-4.966159230224342,0.1351868899927749,-9.846150048510108,,,,,,,,,,
acc,1778675483.0,228.0,-4.975305428931121,0.13129616826872528,-9.844033929855492,,,,,,,,,,
acc,1778675483.0,228.0,-4.984049045988759,0.12708583965791098,-9.842292012585474,,,,,,,,,,
acc,1778675483.0,228.0,-4.9912933391340335,0.12500808000498886,-9.841914795345062,,,,,,,,,,
acc,1778675483.0,228.0,-4.999181736289695,0.12223925790079317,-9.838772266362653,,,,,,,,,,
acc,1778675483.0,228.0,-5.008027852519012,0.12020554009903842,-9.837078162908506,,,,,,,,,,
acc,1778675483.0,228.0,-5.016474114113133,0.1178353313957621,-9.8353639596724,,,,,,,,,,
acc,1778675483.0,228.0,-5.024488660213133,0.11374732449490828,-9.833310362054211,,,,,,,,,,
acc,1778675483.0,228.0,-5.031365470572329,0.11005142872633163,-9.832020854602279,,,,,,,,,,
acc,1778675483.0,228.0,-5.038534752557265,0.10706355810181782,-9.829642664818037,,,,,,,,,,
acc,1778675483.0,228.0,-5.046703791711818,0.10516774471234334,-9.828031523854502,,,,,,,,,,
acc,1778675483.0,228.0,-5.0540886630094795,0.1057029260883233,-9.827783894051198,,,,,,,,,,
acc,1778675483.0,228.0,-5.061761398150389,0.1069431874078197,-9.827148048451702,,,,,,,,,,
acc,1778675483.0,228.0,-5.066915130092024,0.10781720662292661,-9.829748183456319,,,,,,,,,,
acc,1778675483.0,228.0,-5.0744713085301045,0.10832831186170033,-9.829484954127379,,,,,,,,,,
acc,1778675483.0,228.0,-5.0812488793516675,0.110254640735688,-9.833377228873708,,,,,,,,,,
acc,1778675483.0,228.0,-5.086935458985175,0.11599711763292406,-9.835920758053767,,,,,,,,,,
acc,1778675483.0,228.0,-5.093599765640768,0.12481112124005614,-9.837021305652884,,,,,,,,,,
acc,1778675483.0,228.0,-5.102652791576934,0.13389999277194756,-9.839531720360227,,,,,,,,,,
acc,1778675483.0,228.0,-5.113007924467961,0.14322574002092317,-9.841664360010622,,,,,,,,,,
acc,1778675483.0,228.0,-5.1236239207434835,0.14795865960317403,-9.843387154018965,,,,,,,,,,
acc,1778675483.0,228.0,-5.13343351354369,0.15161916833822855,-9.846478666098985,,,,,,,,,,
acc,1778675483.0,228.0,-5.144218861049448,0.1562758152312131,-9.850252018932181,,,,,,,,,,
acc,1778675483.0,228.0,-5.15490620009714,0.15879584818316034,-9.856120884240811,,,,,,,,,,
acc,1778675483.0,228.0,-5.166170860751737,0.159198673983646,-9.85810277526431,,,,,,,,,,
acc,1778675483.0,228.0,-5.1776881288203445,0.1620471086855251,-9.861415526219012,,,,,,,,,,
acc,1778675483.0,228.0,-5.189100737362242,0.1641597253272302,-9.861538970407839,,,,,,,,,,
acc,1778675483.0,228.0,-5.197960359054745,0.16625314423589382,-9.86308116041769,,,,,,,,,,
acc,1778675484.0,229.0,-5.207449414611636,0.16591376505012087,-9.862479534958087,,,,,,,,,,
acc,1778675484.0,229.0,-5.215112896903504,0.1638381344511858,-9.861279935163036,,,,,,,,,,
acc,1778675484.0,229.0,-5.222706739751267,0.1621008333875905,-9.858671368889796,,,,,,,,,,
acc,1778675484.0,229.0,-5.2292021743806565,0.15796554487976705,-9.857115908732464,,,,,,,,,,
acc,1778675484.0,229.0,-5.235958051723859,0.15177352782128142,-9.853444782250746,,,,,,,,,,
acc,1778675484.0,229.0,-5.2416231356575205,0.1459927501020554,-9.851617349079854,,,,,,,,,,
acc,1778675484.0,229.0,-5.247591711339312,0.14235880987838634,-9.848706122685988,,,,,,,,,,
acc,1778675484.0,229.0,-5.254535451017276,0.13804795827740782,-9.84379804253691,,,,,,,,,,
acc,1778675484.0,229.0,-5.260741652506245,0.13448621375773698,-9.839573498684818,,,,,,,,,,
acc,1778675484.0,229.0,-5.266181523558406,0.1312763032810811,-9.833293046705059,,,,,,,,,,
acc,1778675484.0,229.0,-5.271216990220135,0.12809556182066095,-9.831293764273461,,,,,,,,,,
acc,1778675484.0,229.0,-5.276561670046616,0.12146505439568993,-9.824733580459567,,,,,,,,,,
acc,1778675484.0,229.0,-5.282567715388665,0.11805400154760877,-9.823486518412567,,,,,,,,,,
acc,1778675484.0,229.0,-5.2891936218860325,0.11325407846567337,-9.82157634950849,,,,,,,,,,
acc,1778675484.0,229.0,-5.2954043463324805,0.1095626688359284,-9.821742350369869,,,,,,,,,,
acc,1778675484.0,229.0,-5.303297967659833,0.10938348235870908,-9.822261804958181,,,,,,,,,,
acc,1778675484.0,229.0,-5.310800390508686,0.10675664685172798,-9.825225816501888,,,,,,,,,,
acc,1778675484.0,229.0,-5.318234637565861,0.10312428059080894,-9.826423549760495,,,,,,,,,,
acc,1778675484.0,229.0,-5.325920796142082,0.10090929475957594,-9.827610399014091,,,,,,,,,,
acc,1778675484.0,229.0,-5.332507708086319,0.09871443687852907,-9.829496396604844,,,,,,,,,,
acc,1778675484.0,229.0,-5.339389734908069,0.09551012284999714,-9.829199961152332,,,,,,,,,,
acc,1778675484.0,229.0,-5.3475935960151375,0.09300935688257776,-9.833449793269098,,,,,,,,,,
acc,1778675484.0,229.0,-5.356077869418316,0.08740760886035395,-9.83311743273,,,,,,,,,,
acc,1778675484.0,229.0,-5.363100672452242,0.08462550958202474,-9.842265705303406,,,,,,,,,,
acc,1778675484.0,229.0,-5.374922699398285,0.08570233188192684,-9.844373499011075,,,,,,,,,,
acc,1778675484.0,229.0,-5.38663729762781,0.0906030090276583,-9.850899220035275,,,,,,,,,,
acc,1778675484.0,229.0,-5.396506108957095,0.1010321273613844,-9.852893056167172,,,,,,,,,,
acc,1778675484.0,229.0,-5.405930278653247,0.11239587563348308,-9.857282556382984,,,,,,,,,,
acc,1778675484.0,229.0,-5.4173631058368565,0.1215975575900434,-9.860247796253825,,,,,,,,,,
acc,1778675484.0,229.0,-5.427982116833492,0.1234033047951918,-9.86148225057818,,,,,,,,,,
acc,1778675484.0,229.0,-5.437830192246688,0.11823530571971805,-9.86306044931642,,,,,,,,,,
acc,1778675484.0,229.0,-5.447233805413352,0.10960009709102718,-9.86462430670595,,,,,,,,,,
acc,1778675484.0,229.0,-5.4530732979562355,0.10835566611173118,-9.866173953069648,,,,,,,,,,
acc,1778675484.0,229.0,-5.459889127034416,0.10783247673374351,-9.865189252216776,,,,,,,,,,
acc,1778675484.0,229.0,-5.465613618641305,0.1135969576903336,-9.867053232477044,,,,,,,,,,
acc,1778675484.0,229.0,-5.470221186478048,0.12069341887040624,-9.867160940298763,,,,,,,,,,
acc,1778675484.0,229.0,-5.476526218729609,0.12389175396704097,-9.868687535807238,,,,,,,,,,
acc,1778675484.0,229.0,-5.480715154372775,0.12393731914836903,-9.872614031818243,,,,,,,,,,
acc,1778675484.0,229.0,-5.483801120143076,0.1225626038687984,-9.873026178989585,,,,,,,,,,
acc,1778675484.0,229.0,-5.489663281627614,0.11946104679945653,-9.873434580913925,,,,,,,,,,
acc,1778675484.0,229.0,-5.4947622395380895,0.11812700809391163,-9.873803768150664,,,,,,,,,,
acc,1778675484.0,229.0,-5.497046127585704,0.11716006313872784,-9.873459676440431,,,,,,,,,,
acc,1778675484.0,229.0,-5.500338662393736,0.11446256190436983,-9.875638967453776,,,,,,,,,,
acc,1778675484.0,229.0,-5.504630678216932,0.11076017249087584,-9.876733559721535,,,,,,,,,,
acc,1778675484.0,229.0,-5.508564224174328,0.1067364652451248,-9.878883100427277,,,,,,,,,,
acc,1778675484.0,229.0,-5.512107063358686,0.10203938892576576,-9.881971519920798,,,,,,,,,,
acc,1778675484.0,229.0,-5.515617708208157,0.10018923378781217,-9.882263130734021,,,,,,,,,,
acc,1778675484.0,229.0,-5.517712079432033,0.09974025405864684,-9.88397195786505,,,,,,,,,,
acc,1778675484.0,229.0,-5.518722514574146,0.10103469720516732,-9.886055722097788,,,,,,,,,,
acc,1778675484.0,229.0,-5.521108139548015,0.09780930010009263,-9.885600295157344,,,,,,,,,,
acc,1778675484.0,229.0,-5.523152618358461,0.09599758447651134,-9.88766926240561,,,,,,,,,,
acc,1778675484.0,229.0,-5.525852948285038,0.09558669488734535,-9.885530827990237,,,,,,,,,,
acc,1778675484.0,229.0,-5.532362387579386,0.09588947218889085,-9.888203876376759,,,,,,,,,,
acc,1778675484.0,229.0,-5.539167636582743,0.09512460305168605,-9.889184289384106,,,,,,,,,,
acc,1778675484.0,229.0,-5.544171711519967,0.09575104704533384,-9.889800822154932,,,,,,,,,,
acc,1778675484.0,229.0,-5.551579580409179,0.09360306409456974,-9.888636924316168,,,,,,,,,,
acc,1778675484.0,229.0,-5.558565161791538,0.09182957125950532,-9.887483602995776,,,,,,,,,,
acc,1778675484.0,229.0,-5.563037997425984,0.09422530040915528,-9.886340762082979,,,,,,,,,,
acc,1778675484.0,229.0,-5.567825158776267,0.0948599164679684,-9.882084601017896,,,,,,,,,,
acc,1778675484.0,229.0,-5.572923780427139,0.09619870778160446,-9.879251478913368,,,,,,,,,,
acc,1778675484.0,229.0,-5.576911175148881,0.09369168593328528,-9.876089139857969,,,,,,,,,,
acc,1778675484.0,229.0,-5.583311602409887,0.08808374054385035,-9.87405593589116,,,,,,,,,,
acc,1778675484.0,229.0,-5.587204601437564,0.08355616507153611,-9.872360675535907,,,,,,,,,,
acc,1778675484.0,229.0,-5.591417186145886,0.0815189989198448,-9.86961591623479,,,,,,,,,,
acc,1778675484.0,229.0,-5.598715195601898,0.0836889448849742,-9.871120202521276,,,,,,,,,,
acc,1778675484.0,229.0,-5.605627419373435,0.08477427729582498,-9.871865391773074,,,,,,,,,,
acc,1778675484.0,229.0,-5.610701993745111,0.08375544258124927,-9.876437447439017,,,,,,,,,,
acc,1778675484.0,229.0,-5.618889663218593,0.08416573210755332,-9.877489289145847,,,,,,,,,,
acc,1778675484.0,229.0,-5.624198692635744,0.08315242734697675,-9.882010239579664,,,,,,,,,,
acc,1778675484.0,229.0,-5.627365173612642,0.07728529216090098,-9.883046934892144,,,,,,,,,,
acc,1778675484.0,229.0,-5.633662079659295,0.06902220610525096,-9.880950504617289,,,,,,,,,,
acc,1778675484.0,229.0,-5.638836869904349,0.06225407383926867,-9.884055630870513,,,,,,,,,,
acc,1778675484.0,229.0,-5.6443196070697095,0.05764174904512534,-9.883973341070341,,,,,,,,,,
acc,1778675484.0,229.0,-5.651136884188712,0.05793437545773895,-9.884637226358251,,,,,,,,,,
acc,1778675484.0,229.0,-5.656507849299613,0.05925374320442886,-9.886679450303086,,,,,,,,,,
acc,1778675484.0,229.0,-5.663214370034802,0.06056112165994401,-9.890442449643798,,,,,,,,,,
acc,1778675484.0,229.0,-5.671279813453851,0.06292151460574721,-9.895591119884992,,,,,,,,,,
acc,1778675484.0,229.0,-5.678207070165772,0.06384059248552361,-9.900302538021503,,,,,,,,,,
acc,1778675484.0,229.0,-5.685781310775944,0.06269251768051479,-9.905006646263386,,,,,,,,,,
acc,1778675484.0,229.0,-5.693286723139817,0.0618743431356115,-9.909313036582137,,,,,,,,,,
acc,1778675484.0,229.0,-5.697245256969646,0.06074413593171159,-9.912834866824367,,,,,,,,,,
acc,1778675484.0,229.0,-5.702197228527621,0.06136353240321556,-9.912526550426621,,,,,,,,,,
acc,1778675484.0,229.0,-5.707104200789322,0.06510100503527759,-9.91115614095688,,,,,,,,,,
acc,1778675484.0,229.0,-5.71196658267087,0.06809458181917138,-9.907348918423626,,,,,,,,,,
acc,1778675484.0,229.0,-5.7136610747048655,0.06758228896661135,-9.904676681829086,,,,,,,,,,
acc,1778675484.0,229.0,-5.716724530930647,0.06671968041367411,-9.900928339101174,,,,,,,,,,
acc,1778675484.0,229.0,-5.721144520448486,0.06586491051134798,-9.899627820785744,,,,,,,,,,
acc,1778675484.0,229.0,-5.724849906378717,0.0664377737604087,-9.901888793887894,,,,,,,,,,
acc,1778675484.0,229.0,-5.727811688062262,0.0673248988331784,-9.899230679906513,,,,,,,,,,
acc,1778675484.0,229.0,-5.7314564884597266,0.06440582849760401,-9.900110890513018,,,,,,,,,,
acc,1778675484.0,229.0,-5.73261890194995,0.059773950961519114,-9.899882704322197,,,,,,,,,,
acc,1778675484.0,229.0,-5.73480015277914,0.05795289754309015,-9.898343218192633,,,,,,,,,,
acc,1778675484.0,229.0,-5.738026486075893,0.05788772550300189,-9.894687923061042,,,,,,,,,,
acc,1778675484.0,229.0,-5.739129197056346,0.0571132128488637,-9.893195642654783,,,,,,,,,,
acc,1778675484.0,229.0,-5.740221887541536,0.05634573830400221,-9.889551629933417,,,,,,,,,,
acc,1778675484.0,229.0,-5.742334048927453,0.05665014170719134,-9.889774359104543,,,,,,,,,,
acc,1778675484.0,229.0,-5.745491920585639,0.055567407660569834,-9.888610702098616,,,,,,,,,,
acc,1778675484.0,229.0,-5.750005467490434,0.05726325514524854,-9.88742211595615,,,,,,,,,,
acc,1778675484.0,229.0,-5.753093627861649,0.05894369221782056,-9.888054661640718,,,,,,,,,,
acc,1778675484.0,229.0,-5.755443792851677,0.056775212598343575,-9.8858772314661,,,,,,,,,,
acc,1778675484.0,229.0,-5.757772601552127,0.055336380171254286,-9.88474898822756,,,,,,,,,,
acc,1778675484.0,229.0,-5.762174552102987,0.056004917607449314,-9.883950464992907,,,,,,,,,,
acc,1778675484.0,229.0,-5.767246425216129,0.058726189640998336,-9.88181033025816,,,,,,,,,,
acc,1778675484.0,229.0,-5.770177914519923,0.06110325650396396,-9.881748443834121,,,,,,,,,,
acc,1778675484.0,229.0,-5.772727794011787,0.060299523911055426,-9.87689507108178,,,,,,,,,,
acc,1778675484.0,229.0,-5.774225102091414,0.05847369466246927,-9.877232812162749,,,,,,,,,,
acc,1778675484.0,229.0,-5.778832508227828,0.057693857272566484,-9.875153721715936,,,,,,,,,,
acc,1778675484.0,229.0,-5.781303742184411,0.05798601011334626,-9.875187819193181,,,,,,,,,,
acc,1778675484.0,229.0,-5.7827231194058335,0.056536175050425255,-9.874476179661846,,,,,,,,,,
acc,1778675484.0,229.0,-5.785513969753203,0.05719380975995342,-9.872812595363984,,,,,,,,,,
acc,1778675484.0,229.0,-5.7872145555194505,0.05678057381237604,-9.87247751076578,,,,,,,,,,
acc,1778675484.0,229.0,-5.789254658754179,0.0546317508638485,-9.869376728729584,,,,,,,,,,
acc,1778675484.0,229.0,-5.792660585385737,0.05530669133414709,-9.867404522026687,,,,,,,,,,
acc,1778675484.0,229.0,-5.794651199771591,0.05352623271035317,-9.867118581349496,,,,,,,,,,
acc,1778675484.0,229.0,-5.797688619779405,0.051052020593365506,-9.865841324083096,,,,,,,,,,
acc,1778675484.0,229.0,-5.799633543700828,0.05002015754219315,-9.864220711593271,,,,,,,,,,
acc,1778675484.0,229.0,-5.802270726591037,0.04828773840753225,-9.866128995327157,,,,,,,,,,
acc,1778675484.0,229.0,-5.804883945023435,0.051434099203029986,-9.864505768740013,,,,,,,,,,
acc,1778675484.0,229.0,-5.808147846078783,0.05316750649085449,-9.86495609312166,,,,,,,,,,
acc,1778675484.0,229.0,-5.811062620127687,0.0524358872104438,-9.863024057399612,,,,,,,,,,
acc,1778675484.0,229.0,-5.811856612379519,0.05380522017546595,-9.863842817219735,,,,,,,,,,
acc,1778675484.0,229.0,-5.815412122725873,0.055162109816640846,-9.863944204093979,,,,,,,,,,
acc,1778675484.0,229.0,-5.81858035272141,0.05721660196477221,-9.864044669651253,,,,,,,,,,
acc,1778675484.0,229.0,-5.820690392338082,0.056448187999322705,-9.863789260430169,,,,,,,,,,
acc,1778675484.0,229.0,-5.821396895673401,0.055686756720914346,-9.862577760661981,,,,,,,,,,
acc,1778675484.0,229.0,-5.824191273709301,0.05390284446123923,-9.860631842848857,,,,,,,,,,
acc,1778675484.0,229.0,-5.826605297004504,0.05561381787362603,-9.862217768153752,,,,,,,,,,
acc,1778675484.0,229.0,-5.82761301260113,0.055214939555839164,-9.860275121654032,,,,,,,,,,
acc,1778675485.0,230.0,-5.829995942065117,0.054819685901953664,-9.86147383233124,,,,,,,,,,
acc,1778675485.0,230.0,-5.833386617714689,0.054073053059663756,-9.86092230812182,,,,,,,,,,
acc,1778675485.0,230.0,-5.836391510900321,0.04847016798010699,-9.861405195892019,,,,,,,,,,
acc,1778675485.0,230.0,-5.840788963671415,0.049201099569858915,-9.859469933370958,,,,,,,,,,
acc,1778675485.0,230.0,-5.84305216141036,0.047831094324863356,-9.860711455258,,,,,,,,,,
acc,1778675485.0,230.0,-5.847034126077881,0.04473419649748621,-9.858427525954015,,,,,,,,,,
acc,1778675485.0,230.0,-5.8492405731464645,0.04304981171880928,-9.857264749045767,,,,,,,,,,
acc,1778675485.0,230.0,-5.85178193174013,0.04209066591344712,-9.859200739018359,,,,,,,,,,
acc,1778675485.0,230.0,-5.854619664105116,0.04355400727960549,-9.85480073963345,,,,,,,,,,
acc,1778675485.0,230.0,-5.858851475049267,0.04535902196308571,-9.8567591203924,,,,,,,,,,
acc,1778675485.0,230.0,-5.861624965478759,0.04576326313681806,-9.854901571803133,,,,,,,,,,
acc,1778675485.0,230.0,-5.863698823536899,0.048258125633674556,-9.856504074458634,,,,,,,,,,
acc,1778675485.0,230.0,-5.868522569226953,0.048281051343325755,-9.853938910793614,,,,,,,,,,
acc,1778675485.0,230.0,-5.871918118869733,0.05039807252121043,-9.85661506490047,,,,,,,,,,
acc,1778675485.0,230.0,-5.875992736305949,0.05040155223636165,-9.856072198638623,,,,,,,,,,
acc,1778675485.0,230.0,-5.879320403488907,0.049375600162345004,-9.856599160011607,,,,,,,,,,
acc,1778675485.0,230.0,-5.883682726221667,0.050098303941620875,-9.853323199597467,,,,,,,,,,
acc,1778675485.0,230.0,-5.8841717712553665,0.048365174816805814,-9.857708787249097,,,,,,,,,,
acc,1778675485.0,230.0,-5.886395705143051,0.04874209865545085,-9.85719147654898,,,,,,,,,,
acc,1778675485.0,230.0,-5.889273868178317,0.050144997494118854,-9.859483103206463,,,,,,,,,,
acc,1778675485.0,230.0,-5.891096476783269,0.04841144406898309,-9.861753905530154,,,,,,,,,,
acc,1778675485.0,230.0,-5.893931923243499,0.05052728031502063,-9.858395608897993,,,,,,,,,,
acc,1778675485.0,230.0,-5.8946472998444825,0.05155898605496948,-9.862770597183227,,,,,,,,,,
acc,1778675485.0,230.0,-5.8964210793205005,0.0491026508235561,-9.855569416045647,,,,,,,,,,
acc,1778675485.0,230.0,-5.897468807508478,0.04911790221517762,-9.85791127693339,,,,,,,,,,
acc,1778675485.0,230.0,-5.901311242206845,0.04739368216342581,-9.854232927929479,,,,,,,,,,
acc,1778675485.0,230.0,-5.901640094464273,0.04845386333654561,-9.853392241044975,,,,,,,,,,
acc,1778675485.0,230.0,-5.905444624086556,0.05021435228275359,-9.850145422416661,,,,,,,,,,
acc,1778675485.0,230.0,-5.906410354065605,0.050219501489073566,-9.848347973484268,,,,,,,,,,
acc,1778675485.0,230.0,-5.907722270126664,0.05441321136928092,-9.84656685822236,,,,,,,,,,
acc,1778675485.0,230.0,-5.910051664762103,0.05576457599322811,-9.843346568446506,,,,,,,,,,
acc,1778675485.0,230.0,-5.910620559027907,0.05710366057747137,-9.845409034760634,,,,,,,,,,
acc,1778675485.0,230.0,-5.911184283671823,0.059140509407690264,-9.841169857073888,,,,,,,,,,
acc,1778675485.0,230.0,-5.9120978565615605,0.057325212559349435,-9.83980893216474,,,,,,,,,,
acc,1778675485.0,230.0,-5.9119737275535025,0.058295144526689345,-9.837005014421935,,,,,,,,,,
acc,1778675485.0,230.0,-5.909401451920639,0.05858183334452148,-9.835291479853542,,,,,,,,,,
acc,1778675485.0,230.0,-5.9082369219353446,0.05677161327109741,-9.832209145394543,,,,,,,,,,
acc,1778675485.0,230.0,-5.9074379359982725,0.05462287203220185,-9.832243030012528,,,,,,,,,,
acc,1778675485.0,230.0,-5.908385552461134,0.04972492376254609,-9.830572768263053,,,,,,,,,,
acc,1778675485.0,230.0,-5.90584588308673,0.049379558673130236,-9.832396350042451,,,,,,,,,,
acc,1778675485.0,230.0,-5.9071629285519665,0.050776664775590494,-9.829659791483401,,,,,,,,,,
acc,1778675485.0,230.0,-5.907438605718248,0.055320273360201906,-9.829042404109568,,,,,,,,,,
acc,1778675485.0,230.0,-5.910835481581485,0.05946763173999041,-9.828750094457497,,,,,,,,,,
acc,1778675485.0,230.0,-5.912462156755227,0.061837960603709205,-9.829170373748106,,,,,,,,,,
acc,1778675485.0,230.0,-5.915103450223325,0.06418674995809934,-9.828557433783347,,,,,,,,,,
acc,1778675485.0,230.0,-5.915626438204555,0.06268056813873026,-9.825891254367496,,,,,,,,,,
acc,1778675485.0,230.0,-5.915470244489057,0.06257243511708518,-9.82285884673666,,,,,,,,,,
acc,1778675485.0,230.0,-5.91772923215429,0.0624652847152943,-9.819144053249376,,,,,,,,,,
acc,1778675485.0,230.0,-5.918583330173484,0.06409844988472935,-9.820042089207984,,,,,,,,,,
acc,1778675485.0,230.0,-5.918400266772313,0.06500683248852368,-9.815004024448358,,,,,,,,,,
acc,1778675485.0,230.0,-5.920987599794601,0.06384816027018454,-9.815194254378925,,,,,,,,,,
acc,1778675485.0,230.0,-5.920782688463362,0.06337445538297339,-9.814708317348424,,,,,,,,,,
acc,1778675485.0,230.0,-5.921964001093703,0.06187565500899553,-9.81490123440987,,,,,,,,,,
acc,1778675485.0,230.0,-5.923489549852997,0.06074543623712559,-9.817967623471894,,,,,,,,,,
acc,1778675485.0,230.0,-5.927769968626919,0.05820562257078774,-9.817172511384657,,,,,,,,,,
acc,1778675485.0,230.0,-5.928532825079265,0.0571087538933715,-9.820857195895611,,,,,,,,,,
acc,1778675485.0,230.0,-5.929288749348805,0.052188216177585234,-9.820035825866006,,,,,,,,,,
acc,1778675485.0,230.0,-5.932132108085704,0.05426973226612108,-9.820535292913036,,,,,,,,,,
acc,1778675485.0,230.0,-5.934949628825994,0.05249869689910114,-9.823550484491092,,,,,,,,,,
acc,1778675485.0,230.0,-5.937741546363222,0.05319302062137757,-9.824053507710298,,,,,,,,,,
acc,1778675485.0,230.0,-5.940153122478412,0.055939844215974595,-9.82767566363859,,,,,,,,,,
acc,1778675485.0,230.0,-5.940803451496168,0.054153632315955845,-9.829525571762282,,,,,,,,,,
acc,1778675485.0,230.0,-5.9393535672372275,0.058986030340729204,-9.827880003977155,,,,,,,,,,
acc,1778675485.0,230.0,-5.939656191044803,0.06065081195018787,-9.829408587799442,,,,,,,,,,
acc,1778675485.0,230.0,-5.9385716938931585,0.062300465457695194,-9.831278242958494,,,,,,,,,,
acc,1778675485.0,230.0,-5.93749705171789,0.06219578648373661,-9.828906806657821,,,,,,,,,,
acc,1778675485.0,230.0,-5.936432174965432,0.06454132417115155,-9.830390565416765,,,,,,,,,,
acc,1778675485.0,230.0,-5.934702545678379,0.06370634953841853,-9.828772631683503,,,,,,,,,,
acc,1778675485.0,230.0,-5.932278701107267,0.0663576370417434,-9.831996942465715,,,,,,,,,,
acc,1778675485.0,230.0,-5.930906282441162,0.06621608998959706,-9.831322813647567,,,,,,,,,,
acc,1778675485.0,230.0,-5.930611238674537,0.06188723101775215,-9.835908321536618,,,,,,,,,,
acc,1778675485.0,230.0,-5.928934505044967,0.06214127803830907,-9.837683418345398,,,,,,,,,,
acc,1778675485.0,230.0,-5.92482373362236,0.05437077285743408,-9.840542782503169,,,,,,,,,,
acc,1778675485.0,230.0,-5.922489659189967,0.05536755218526895,-9.838832594179001,,,,,,,,,,
acc,1778675485.0,230.0,-5.920531756603591,0.05568084442703497,-9.839516214177298,,,,,,,,,,
acc,1778675485.0,230.0,-5.919621045837749,0.058405060789203746,-9.837424889187913,,,,,,,,,,
acc,1778675485.0,230.0,-5.9166243162912355,0.06355378722928814,-9.837056406746303,,,,,,,,,,
acc,1778675485.0,230.0,-5.916459054724301,0.06379269002235237,-9.83669127275577,,,,,,,,,,
acc,1778675485.0,230.0,-5.913171591206301,0.0661237164054796,-9.835690512850519,,,,,,,,,,
acc,1778675485.0,230.0,-5.912327763281996,0.06736866598215668,-9.836083217948026,,,,,,,,,,
acc,1778675485.0,230.0,-5.9097522705951535,0.07034163527328022,-9.839951029054836,,,,,,,,,,
acc,1778675485.0,230.0,-5.908265085299625,0.07119328516427721,-9.835441981810522,,,,,,,,,,
acc,1778675485.0,230.0,-5.907110881687669,0.07203719599461916,-9.838605687255086,,,,,,,,,,
acc,1778675485.0,230.0,-5.905647699059596,0.07532271257609433,-9.838616939973916,,,,,,,,,,
acc,1778675485.0,230.0,-5.9041978125749095,0.074389765989029,-9.842106755916795,,,,,,,,,,
acc,1778675485.0,230.0,-5.902761101409687,0.07555960082760069,-9.843861021041052,,,,,,,,,,
acc,1778675485.0,230.0,-5.900627513181118,0.0763638343428705,-9.845918812338773,,,,,,,,,,
acc,1778675485.0,230.0,-5.896773971340884,0.07716075967673333,-9.851117111338214,,,,,,,,,,
acc,1778675485.0,230.0,-5.895404721647929,0.07866038498281044,-9.847535996461794,,,,,,,,,,
acc,1778675485.0,230.0,-5.89436738193989,0.0797914121145775,-9.85403297302117,,,,,,,,,,
acc,1778675485.0,230.0,-5.89614370494141,0.0805571905749273,-9.854258997649477,,,,,,,,,,
acc,1778675485.0,230.0,-5.893360317258773,0.08341031390389472,-9.859026537351658,,,,,,,,,,
acc,1778675485.0,230.0,-5.891312155259994,0.08346877769715162,-9.860982020951383,,,,,,,,,,
acc,1778675485.0,230.0,-5.8871883015915945,0.08526604295256744,-9.861854831276105,,,,,,,,,,
acc,1778675485.0,230.0,-5.884166825476713,0.08459771082613754,-9.862719710252541,,,,,,,,,,
acc,1778675485.0,230.0,-5.88010790241003,0.08602975552551809,-9.862511835517472,,,,,,,,,,
acc,1778675485.0,230.0,-5.876440825122163,0.08397011249306294,-9.860956973184587,,,,,,,,,,
acc,1778675485.0,230.0,-5.873162041943186,0.08192918572197833,-9.862539943772763,,,,,,,,,,
acc,1778675485.0,230.0,-5.869913053520824,0.08374044145762312,-9.862653170022565,,,,,,,,,,
acc,1778675485.0,230.0,-5.866338618236384,0.08241153439285398,-9.862445899948142,,,,,,,,,,
acc,1778675485.0,230.0,-5.863506606078898,0.085602777900482,-9.860146209771319,,,,,,,,,,
acc,1778675485.0,230.0,-5.8596354252871885,0.08631574767416639,-9.85893231163086,,,,,,,,,,
acc,1778675485.0,230.0,-5.854770022378772,0.08911654218524254,-9.860498186233443,,,,,,,,,,
acc,1778675485.0,230.0,-5.852362603072303,0.0943411508623435,-9.857186795131053,,,,,,,,,,
acc,1778675485.0,230.0,-5.84965759289723,0.09848888272620786,-9.860472369842528,,,,,,,,,,
acc,1778675485.0,230.0,-5.84697716352383,0.10117905827654182,-9.857871145990183,,,,,,,,,,
acc,1778675485.0,230.0,-5.8418718171255914,0.10874332765705501,-9.861185996268997,,,,,,,,,,
acc,1778675485.0,230.0,-5.838197234654669,0.11134031964987456,-9.856803451429538,,,,,,,,,,
acc,1778675485.0,230.0,-5.833526643553207,0.11323927412867016,-9.856258873326617,,,,,,,,,,
acc,1778675485.0,230.0,-5.82957293304735,0.11164230710893862,-9.854370376390687,,,,,,,,,,
acc,1778675485.0,230.0,-5.8246257412995845,0.11179918466696857,-9.853492937108658,,,,,,,,,,
acc,1778675485.0,230.0,-5.820433438015775,0.11472337852953085,-9.85091963288239,,,,,,,,,,
acc,1778675485.0,230.0,-5.814859365475144,0.11275796346971884,-9.851883881507831,,,,,,,,,,
acc,1778675485.0,230.0,-5.811075287105165,0.11116537018869077,-9.84968016986111,,,,,,,,,,
acc,1778675485.0,230.0,-5.806651156891371,0.10749294544048486,-9.851330119944341,,,,,,,,,,
acc,1778675485.0,230.0,-5.80120232584566,0.10349893074347198,-9.849521905634736,,,,,,,,,,
acc,1778675485.0,230.0,-5.793389238080334,0.1019904755711689,-9.84808508459854,,,,,,,,,,
acc,1778675485.0,230.0,-5.788060919923127,0.10255452807214924,-9.84556092227911,,,,,,,,,,
acc,1778675485.0,230.0,-5.782106582643252,0.10485279674994653,-9.842349773811943,,,,,,,,,,
acc,1778675485.0,230.0,-5.777945695048412,0.10819507516883489,-9.839558261634899,,,,,,,,,,
acc,1778675485.0,230.0,-5.772402752721588,0.1146306854854782,-9.83920588731211,,,,,,,,,,
acc,1778675485.0,230.0,-5.766910179877624,0.1203333853234887,-9.836442944066897,,,,,,,,,,
acc,1778675485.0,230.0,-5.761822480581372,0.12736862578413724,-9.835089478999887,,,,,,,,,,
acc,1778675485.0,230.0,-5.7574909465571915,0.1266726634699621,-9.832363942126193,,,,,,,,,,
acc,1778675485.0,230.0,-5.752133879356571,0.12562806368235047,-9.831686478350266,,,,,,,,,,
acc,1778675485.0,230.0,-5.747890386989919,0.12530288896252634,-9.826542599660026,,,,,,,,,,
acc,1778675485.0,230.0,-5.741946123116129,0.12359629822075872,-9.824604662104512,,,,,,,,,,
acc,1778675485.0,230.0,-5.735345942944459,0.12190521550479926,-9.818850698573312,,,,,,,,,,
acc,1778675486.0,231.0,-5.729870633945012,0.1195195672464525,-9.819360935015615,,,,,,,,,,
acc,1778675486.0,231.0,-5.725829450763086,0.11924990127615001,-9.816032898589034,,,,,,,,,,
acc,1778675486.0,231.0,-5.718701286736255,0.11827275315353378,-9.816249273349824,,,,,,,,,,
acc,1778675486.0,231.0,-5.713696706531666,0.11868884635139025,-9.81195560732181,,,,,,,,,,
acc,1778675486.0,231.0,-5.708418127133422,0.11633242568539838,-9.811215127288845,,,,,,,,,,
acc,1778675486.0,231.0,-5.703861953198376,0.11470735078308227,-9.807996607303725,,,,,,,,,,
acc,1778675486.0,231.0,-5.698317781783705,0.11515584328340962,-9.806582170606479,,,,,,,,,,
acc,1778675486.0,231.0,-5.692114058376863,0.11528079285274238,-9.804825616225564,,,,,,,,,,
acc,1778675486.0,231.0,-5.686321679926322,0.11955771976598069,-9.801629664250123,,,,,,,,,,
acc,1778675486.0,231.0,-5.679552528470771,0.12170147808522418,-9.801976923186182,,,,,,,,,,
acc,1778675486.0,231.0,-5.672489927451179,0.12453568841949947,-9.800262217324539,,,,,,,,,,
acc,1778675486.0,231.0,-5.665491505262053,0.12489486946059745,-9.797853160589097,,,,,,,,,,
acc,1778675486.0,231.0,-5.656817345999059,0.12319198645424052,-9.798589698911876,,,,,,,,,,
acc,1778675486.0,231.0,-5.648576971796279,0.12043967427370313,-9.792681680818436,,,,,,,,,,
acc,1778675486.0,231.0,-5.639701546369109,0.1190967436579727,-9.792364815223086,,,,,,,,,,
acc,1778675486.0,231.0,-5.630196840515779,0.12021529086860501,-9.788288190569734,,,,,,,,,,
acc,1778675486.0,231.0,-5.619039172535468,0.12061373195728782,-9.788366220090431,,,,,,,,,,
acc,1778675486.0,231.0,-5.610787132030856,0.1217184940857254,-9.78500036950525,,,,,,,,,,
acc,1778675486.0,231.0,-5.601900137228404,0.12281321708823245,-9.785853702910972,,,,,,,,,,
acc,1778675486.0,231.0,-5.593803841502819,0.120064346840486,-9.784604987481192,,,,,,,,,,
acc,1778675486.0,231.0,-5.585781117933784,0.1190797977427287,-9.783367619300845,,,,,,,,,,
acc,1778675486.0,231.0,-5.57644692703873,0.11742975709752924,-9.781431553527534,,,,,,,,,,
acc,1778675486.0,231.0,-5.566842586360246,0.11508477795825907,-9.777738253991874,,,,,,,,,,
acc,1778675486.0,231.0,-5.558354921708394,0.1120511753270252,-9.77659877912596,,,,,,,,,,
acc,1778675486.0,231.0,-5.5495894238595085,0.11046500474317658,-9.777528458940271,,,,,,,,,,
acc,1778675486.0,231.0,-5.541968482803657,0.10992264796754306,-9.777065319704638,,,,,,,,,,
acc,1778675486.0,231.0,-5.534061823426778,0.11112456144759116,-9.78285379631645,,,,,,,,,,
acc,1778675486.0,231.0,-5.528321316515721,0.11057621118948287,-9.781312864949497,,,,,,,,,,
acc,1778675486.0,231.0,-5.520538670822068,0.10272054221360948,-9.785642878249709,,,,,,,,,,
acc,1778675486.0,231.0,-5.512471776239811,0.09529122056202352,-9.786490373088267,,,,,,,,,,
acc,1778675486.0,231.0,-5.504478186641474,0.08931378110123751,-9.790453870240924,,,,,,,,,,
acc,1778675486.0,231.0,-5.495527835838264,0.0899930284661041,-9.795055788828007,,,,,,,,,,
acc,1778675486.0,231.0,-5.483854590995127,0.09556464317547969,-9.798941450866373,,,,,,,,,,
acc,1778675486.0,231.0,-5.470548080755195,0.10246999877285995,-9.805880012612775,,,,,,,,,,
acc,1778675486.0,231.0,-5.45214448143563,0.10444955905407997,-9.81279101705171,,,,,,,,,,
acc,1778675486.0,231.0,-5.430429452771037,0.10467179810273357,-9.818290352768381,,,,,,,,,,
acc,1778675486.0,231.0,-5.404403677034406,0.09931904868618475,-9.824059182678871,,,,,,,,,,
acc,1778675486.0,231.0,-5.376875068416728,0.09227560774710433,-9.826687381183113,,,,,,,,,,
acc,1778675486.0,231.0,-5.3481767507837095,0.0898042369715128,-9.833409306193039,,,,,,,,,,
acc,1778675486.0,231.0,-5.319419751305144,0.0890946656644211,-9.836946444530808,,,,,,,,,,
acc,1778675486.0,231.0,-5.2909240706468115,0.09084080766282226,-9.8411613730438,,,,,,,,,,
acc,1778675486.0,231.0,-5.261622430666346,0.09395545314595473,-9.847467797837187,,,,,,,,,,
acc,1778675486.0,231.0,-5.231912629537627,0.09633186277712029,-9.852297050000914,,,,,,,,,,
acc,1778675486.0,231.0,-5.199668569273608,0.09556297403534116,-9.85850228336195,,,,,,,,,,
acc,1778675486.0,231.0,-5.164948773396922,0.09203233045686895,-9.859752598247889,,,,,,,,,,
acc,1778675486.0,231.0,-5.128450186624363,0.08505510493753929,-9.862659895322704,,,,,,,,,,
acc,1778675486.0,231.0,-5.089479031348495,0.0798806151213639,-9.862417069778326,,,,,,,,,,
acc,1778675486.0,231.0,-5.049477641417466,0.08206544824067147,-9.86121803948939,,,,,,,,,,
acc,1778675486.0,231.0,-5.008100416940036,0.083520503928881,-9.862443675924654,,,,,,,,,,
acc,1778675486.0,231.0,-4.963975489397953,0.08425239559994399,-9.859789035138318,,,,,,,,,,
acc,1778675486.0,231.0,-4.919186627655434,0.0870719400251413,-9.856484088247832,,,,,,,,,,
acc,1778675486.0,231.0,-4.874130339284009,0.08397342650801422,-9.854274068279128,,,,,,,,,,
acc,1778675486.0,231.0,-4.828099112701018,0.0798381661096869,-9.848250494820785,,,,,,,,,,
acc,1778675486.0,231.0,-4.783160607411159,0.07921915786268362,-9.844659935014144,,,,,,,,,,
acc,1778675486.0,231.0,-4.738630464514477,0.08243941087396896,-9.840782535704193,,,,,,,,,,
acc,1778675486.0,231.0,-4.6896419368677025,0.08598536277755532,-9.83342620202698,,,,,,,,,,
acc,1778675486.0,231.0,-4.636555005843301,0.08914413035199562,-9.825178305035212,,,,,,,,,,
acc,1778675486.0,231.0,-4.581181750336037,0.09088982285461453,-9.818318730928528,,,,,,,,,,
acc,1778675486.0,231.0,-4.525601746597516,0.09261965200880481,-9.810847061526948,,,,,,,,,,
acc,1778675486.0,231.0,-4.470881767790202,0.09678302729500628,-9.804117717405614,,,,,,,,,,
acc,1778675486.0,231.0,-4.417368969611161,0.0973944005883741,-9.798194959846754,,,,,,,,,,
acc,1778675486.0,231.0,-4.3636325169684325,0.09871015997297453,-9.79264549061737,,,,,,,,,,
acc,1778675486.0,231.0,-4.3107393457406005,0.1034926282504942,-9.78824684803965,,,,,,,,,,
acc,1778675486.0,231.0,-4.256232518498784,0.10613733402752437,-9.784207643948397,,,,,,,,,,
acc,1778675486.0,231.0,-4.201866040534417,0.1056343033944665,-9.778110841109665,,,,,,,,,,
acc,1778675486.0,231.0,-4.146254256472623,0.10584577650735379,-9.777677913136518,,,,,,,,,,
acc,1778675486.0,231.0,-4.090473386080928,0.10570036615989106,-9.774409188690793,,,,,,,,,,
acc,1778675486.0,231.0,-4.03377953887285,0.10591123895129388,-9.773619432920963,,,,,,,,,,
acc,1778675486.0,231.0,-3.976216514641756,0.10576523373760865,-9.771097521081627,,,,,,,,,,
acc,1778675486.0,231.0,-3.917437231769825,0.10597551706836378,-9.767214155288809,,,,,,,,,,
acc,1778675486.0,231.0,-3.8578077225161636,0.10721329866445749,-9.7650699165049,,,,,,,,,,
acc,1778675486.0,231.0,-3.7980101421947787,0.10946923242032014,-9.763335627936444,,,,,,,,,,
acc,1778675486.0,231.0,-3.739110912502275,0.11450889329544667,-9.762291537364035,,,,,,,,,,
acc,1778675486.0,231.0,-3.681456840864499,0.1202126998015589,-9.763351229049778,,,,,,,,,,
acc,1778675486.0,231.0,-3.6243266797216784,0.1241253332564407,-9.764401291171126,,,,,,,,,,
acc,1778675486.0,231.0,-3.56807063908875,0.12555314674703363,-9.764696384236501,,,,,,,,,,
acc,1778675486.0,231.0,-3.511260901351589,0.12522865281163717,-9.766799126245779,,,,,,,,,,
acc,1778675486.0,231.0,-3.4546124397558033,0.1283857729731617,-9.768492295126709,,,,,,,,,,
acc,1778675486.0,231.0,-3.3991886831740628,0.1328985748617605,-9.769460145312113,,,,,,,,,,
acc,1778675486.0,231.0,-3.3449785025429772,0.1373703682976774,-9.772584492779087,,,,,,,,,,
acc,1778675486.0,231.0,-3.291580404708654,0.14112708765395102,-9.774225089237081,,,,,,,,,,
acc,1778675486.0,231.0,-3.2393774753845115,0.14552410746011266,-9.778264548332817,,,,,,,,,,
acc,1778675486.0,231.0,-3.1869389886366983,0.14537309642855012,-9.781912338532463,,,,,,,,,,
acc,1778675486.0,231.0,-3.133592646731635,0.14312916319319727,-9.785243007705343,,,,,,,,,,
acc,1778675486.0,231.0,-3.0814410030230954,0.14126058266295607,-9.7885789049885,,,,,,,,,,
acc,1778675486.0,231.0,-3.0297632684875544,0.13940898218148795,-9.789754690604585,,,,,,,,,,
acc,1778675486.0,231.0,-2.9799395075593713,0.13860360749947281,-9.793653030072393,,,,,,,,,,
acc,1778675486.0,231.0,-2.9312784346485925,0.13709561873199902,-9.797196477377776,,,,,,,,,,
acc,1778675486.0,231.0,-2.8819946481149668,0.13354253316503018,-9.801772619299848,,,,,,,,,,
acc,1778675486.0,231.0,-2.833868651863926,0.1310511350267656,-9.805206788419104,,,,,,,,,,
acc,1778675486.0,231.0,-2.7854700414491314,0.12893734742828325,-9.81038457781694,,,,,,,,,,
acc,1778675486.0,231.0,-2.7382211775993404,0.12648779724739442,-9.813492010188176,,,,,,,,,,
acc,1778675486.0,231.0,-2.6934959651466666,0.12406050646652753,-9.816571204893275,,,,,,,,,,
acc,1778675486.0,231.0,-2.6494966442766534,0.12548890904557108,-9.820971285996542,,,,,,,,,,
acc,1778675486.0,231.0,-2.6058971512980156,0.13002803513158362,-9.82288211763442,,,,,,,,,,
acc,1778675486.0,231.0,-2.5634037946425714,0.1348808753277873,-9.824811079641924,,,,,,,,,,
acc,1778675486.0,231.0,-2.5216515427484207,0.13933465532211806,-9.828071389457557,,,,,,,,,,
acc,1778675486.0,231.0,-2.479923737545738,0.14200863051801835,-9.828533330565435,,,,,,,,,,
acc,1778675486.0,231.0,-2.4382201477968954,0.14394837429710247,-9.829346044812276,,,,,,,,,,
acc,1778675486.0,231.0,-2.396895524314134,0.14729035662869908,-9.83121626822283,,,,,,,,,,
acc,1778675486.0,231.0,-2.3570113177887353,0.14744276286209282,-9.831259175249848,,,,,,,,,,
acc,1778675486.0,231.0,-2.3174895445432906,0.1493331259318285,-9.83481585210609,,,,,,,,,,
acc,1778675486.0,231.0,-2.2803857202835722,0.15503994724443604,-9.835181010992821,,,,,,,,,,
acc,1778675486.0,231.0,-2.2429446253113627,0.15757120628874902,-9.837708143897311,,,,,,,,,,
acc,1778675486.0,231.0,-2.205133830092085,0.15486145628995981,-9.84053178889829,,,,,,,,,,
acc,1778675486.0,231.0,-2.167666626778374,0.1473132938808935,-9.842655336772541,,,,,,,,,,
acc,1778675486.0,231.0,-2.1333441292853705,0.14086312271333143,-9.846818387774183,,,,,,,,,,
acc,1778675486.0,231.0,-2.1014278286023624,0.13901513400710713,-9.849594741093911,,,,,,,,,,
acc,1778675486.0,231.0,-2.069091623105365,0.13856830913983764,-9.854724132822039,,,,,,,,,,
acc,1778675486.0,231.0,-2.0353099193905,0.1412492482277113,-9.857712618601601,,,,,,,,,,
acc,1778675486.0,231.0,-2.0018351946714126,0.14600011971190924,-9.856804807920705,,,,,,,,,,
acc,1778675486.0,231.0,-1.967954735839374,0.15383152296819125,-9.858744977182157,,,,,,,,,,
acc,1778675486.0,231.0,-1.9350920769526443,0.16194673204542212,-9.857863288763836,,,,,,,,,,
acc,1778675486.0,231.0,-1.9035574547112442,0.16512516081935324,-9.860148810325189,,,,,,,,,,
acc,1778675486.0,231.0,-1.8730193245618998,0.16618040322712227,-9.86205859217601,,,,,,,,,,
acc,1778675486.0,231.0,-1.84204876597302,0.1651317529558142,-9.862566657752556,,,,,,,,,,
acc,1778675486.0,231.0,-1.812069573751972,0.166861373735165,-9.864809439151875,,,,,,,,,,
acc,1778675486.0,231.0,-1.7816528739454245,0.1699951424827365,-9.864902042181862,,,,,,,,,,
acc,1778675486.0,231.0,-1.7511931074662408,0.17551420520179173,-9.866449163345813,,,,,,,,,,
acc,1778675486.0,231.0,-1.7213296004953176,0.1789243062519059,-9.865497465926923,,,,,,,,,,
acc,1778675486.0,231.0,-1.6920924291003014,0.18230341924399787,-9.867039176393197,,,,,,,,,,
acc,1778675486.0,231.0,-1.6631209399094768,0.18249262781608838,-9.8698802593145,,,,,,,,,,
acc,1778675486.0,231.0,-1.6333833185828446,0.1760777389733394,-9.87209207536868,,,,,,,,,,
acc,1778675486.0,231.0,-1.6032059944826955,0.17110551401950178,-9.871408567445181,,,,,,,,,,
acc,1778675486.0,231.0,-1.572592963248702,0.16791780504302034,-9.871831668508548,,,,,,,,,,
acc,1778675486.0,231.0,-1.5433230112557659,0.1713969356270214,-9.869127221199868,,,,,,,,,,
acc,1778675486.0,231.0,-1.5146740102098197,0.1786425927415482,-9.868506149674575,,,,,,,,,,
acc,1778675486.0,231.0,-1.4880246792670353,0.18514796929666064,-9.868245692772883,,,,,,,,,,
acc,1778675486.0,231.0,-1.4619724853266922,0.1884705270047229,-9.865218860858738,,,,,,,,,,
acc,1778675486.0,231.0,-1.4354470986264718,0.18966858862811797,-9.866017676052268,,,,,,,,,,
acc,1778675487.0,232.0,-1.408133351720203,0.19295006684552773,-9.863721023068075,,,,,,,,,,
acc,1778675487.0,232.0,-1.3807128377335611,0.1920131278155384,-9.863113584049906,,,,,,,,,,
acc,1778675487.0,232.0,-1.3535414977347524,0.18689609578974142,-9.860097893954903,,,,,,,,,,
acc,1778675487.0,232.0,-1.3269720383064476,0.1828904664348264,-9.857464569625112,,,,,,,,,,
acc,1778675487.0,232.0,-1.29993407749387,0.18030560769553025,-9.852086441943602,,,,,,,,,,
acc,1778675487.0,232.0,-1.2727868525817956,0.18157786506504048,-9.84881599523398,,,,,,,,,,
acc,1778675487.0,232.0,-1.2448569181932052,0.18631723571113004,-9.846995132793902,,,,,,,,,,
acc,1778675487.0,232.0,-1.218210187014513,0.19065856818230723,-9.844480875059622,,,,,,,,,,
acc,1778675487.0,232.0,-1.1914506365787234,0.192156223274955,-9.840924570322983,,,,,,,,,,
acc,1778675487.0,232.0,-1.1656441774115216,0.1936402689694772,-9.836087209114677,,,,,,,,,,
acc,1778675487.0,232.0,-1.1404271959545242,0.19688565597986024,-9.834027044046321,,,,,,,,,,
acc,1778675487.0,232.0,-1.1154393646815806,0.19868168644180545,-9.828542428974647,,,,,,,,,,
acc,1778675487.0,232.0,-1.0903236304124195,0.20117132876234892,-9.82239772072081,,,,,,,,,,
acc,1778675487.0,232.0,-1.064371231871529,0.20225397645056808,-9.81630885027728,,,,,,,,,,
acc,1778675487.0,232.0,-1.036240895392761,0.20364626247111658,-9.809920339377229,,,,,,,,,,
acc,1778675487.0,232.0,-1.0087211449301834,0.2022571547776847,-9.801531081658473,,,,,,,,,,
acc,1778675487.0,232.0,-0.9817709467317258,0.20364941191628316,-9.795986791012117,,,,,,,,,,
acc,1778675487.0,232.0,-0.9550656486965088,0.20297020823819484,-9.789427987690024,,,,,,,,,,
acc,1778675487.0,232.0,-0.9275736253344428,0.198108578576207,-9.782573814256217,,,,,,,,,,
acc,1778675487.0,232.0,-0.8999764549145619,0.1957403925305644,-9.776136896501436,,,,,,,,,,
acc,1778675487.0,232.0,-0.8719556255088285,0.1923288230221067,-9.769048539270232,,,,,,,,,,
acc,1778675487.0,232.0,-0.8452188343751753,0.19349182377765065,-9.759930291373452,,,,,,,,,,
acc,1778675487.0,232.0,-0.81907996591907,0.2008916633702295,-9.755793441974056,,,,,,,,,,
acc,1778675487.0,232.0,-0.7938530632357143,0.20928916309672876,-9.7499548429247,,,,,,,,,,
acc,1778675487.0,232.0,-0.7688554008917959,0.21690042095189566,-9.74487923266376,,,,,,,,,,
acc,1778675487.0,232.0,-0.7444398575225122,0.2202539162577868,-9.740559677807006,,,,,,,,,,
acc,1778675487.0,232.0,-0.7181518780148779,0.2208081960713267,-9.731700312118674,,,,,,,,,,
acc,1778675487.0,232.0,-0.6914283518103732,0.21890817375022809,-9.724021850562062,,,,,,,,,,
acc,1778675487.0,232.0,-0.6642377333347399,0.21667044633279764,-9.716058193382363,,,,,,,,,,
acc,1778675487.0,232.0,-0.6376491615280984,0.21306868254339345,-9.707102008644036,,,,,,,,,,
acc,1778675487.0,232.0,-0.6130415455057797,0.2108840193868565,-9.701315410135097,,,,,,,,,,
acc,1778675487.0,232.0,-0.5883025714187825,0.20871920856533205,-9.694871471696406,,,,,,,,,,
acc,1778675487.0,232.0,-0.5627590037484506,0.20692904053876515,-9.689905955482994,,,,,,,,,,
acc,1778675487.0,232.0,-0.5363826505004214,0.20622003442388204,-9.685730988593836,,,,,,,,,,
acc,1778675487.0,232.0,-0.5106009536681663,0.2044525767369798,-9.680138591487683,,,,,,,,,,
acc,1778675487.0,232.0,-0.48437910039149307,0.20617984554714858,-9.6763718493942,,,,,,,,,,
acc,1778675487.0,232.0,-0.45906996698179486,0.21034068374504547,-9.672319868791185,,,,,,,,,,
acc,1778675487.0,232.0,-0.4339908211533387,0.21549312096854067,-9.669973043969755,,,,,,,,,,
acc,1778675487.0,232.0,-0.40949453475097003,0.2220186025543225,-9.66594370674591,,,,,,,,,,
acc,1778675487.0,232.0,-0.38522084947711344,0.22880425360389062,-9.664755220842428,,,,,,,,,,
acc,1778675487.0,232.0,-0.3608127807509727,0.23275950068969942,-9.660808802143126,,,,,,,,,,
acc,1778675487.0,232.0,-0.3369814732808222,0.23422954058331208,-9.658247112556033,,,,,,,,,,
acc,1778675487.0,232.0,-0.3137216950448152,0.2315331183820878,-9.655069766567596,,,,,,,,,,
acc,1778675487.0,232.0,-0.2899633489828132,0.227796295445534,-9.653270161021684,,,,,,,,,,
acc,1778675487.0,232.0,-0.26677586005742854,0.22515833302893196,-9.651131946965576,,,,,,,,,,
acc,1778675487.0,232.0,-0.2434441172639187,0.22183440950569872,-9.649013163155095,,,,,,,,,,
acc,1778675487.0,232.0,-0.2203243932306973,0.22028002361591303,-9.648333498293795,,,,,,,,,,
acc,1778675487.0,232.0,-0.19674032303959038,0.21629049732780534,-9.648334447915191,,,,,,,,,,
acc,1778675487.0,232.0,-0.17337056454257344,0.21549642236594435,-9.648370883267184,,,,,,,,,,
acc,1778675487.0,232.0,-0.1498582084861207,0.2147095632726305,-9.648406987526114,,,,,,,,,,
acc,1778675487.0,232.0,-0.12829884513003384,0.2205322325198093,-9.650466069436941,,,,,,,,,,
acc,1778675487.0,232.0,-0.1079647947262361,0.22527259032148775,-9.652861401960477,,,,,,,,,,
acc,1778675487.0,232.0,-0.08852545527345991,0.2313542336606414,-9.655234967767463,,,,,,,,,,
acc,1778675487.0,232.0,-0.06890780200204533,0.23248208163546716,-9.660036239059027,,,,,,,,,,
acc,1778675487.0,232.0,-0.04911344618708197,0.23569398424360502,-9.66269957699389,,,,,,,,,,
acc,1778675487.0,232.0,-0.02882452613523613,0.23855722334954946,-9.667113548939616,,,,,,,,,,
acc,1778675487.0,232.0,-0.008719974294275706,0.24032954939940968,-9.671806877928017,,,,,,,,,,
acc,1778675487.0,232.0,0.011201884715129486,0.2420857700783544,-9.673653321811996,,,,,,,,,,
acc,1778675487.0,232.0,0.030268272773488557,0.24347106087736325,-9.678287222983565,,,,,,,,,,
acc,1778675487.0,232.0,0.048451469303234095,0.24310443066572657,-9.682879015256969,,,,,,,,,,
acc,1778675487.0,232.0,0.06820876530412275,0.24345106470765737,-9.689203908323845,,,,,,,,,,
acc,1778675487.0,232.0,0.08849645666945391,0.24379454883830798,-9.691957166491713,,,,,,,,,,
acc,1778675487.0,232.0,0.10927422926356749,0.2451643117293461,-9.696744205519389,,,,,,,,,,
acc,1778675487.0,232.0,0.12883379132846753,0.2486159309393721,-9.703298074553418,,,,,,,,,,
acc,1778675487.0,232.0,0.1471862129110265,0.2510067847622813,-9.710147349450478,,,,,,,,,,
acc,1778675487.0,232.0,0.1636325217416275,0.25823894884045717,-9.718993193226288,,,,,,,,,,
acc,1778675487.0,232.0,0.17992938069878767,0.2657603641083132,-9.72669375010637,,,,,,,,,,
acc,1778675487.0,232.0,0.1957231860805127,0.27214852774471354,-9.733330425277494,,,,,,,,,,
acc,1778675487.0,232.0,0.21101850011679454,0.27815917384468336,-9.740900697755304,,,,,,,,,,
acc,1778675487.0,232.0,0.22688475616215265,0.2802815641505589,-9.747017807215835,,,,,,,,,,
acc,1778675487.0,232.0,0.24189690071934708,0.2785510317782834,-9.751304502618073,,,,,,,,,,
acc,1778675487.0,232.0,0.25641766607782035,0.27545185408338535,-9.759740851314616,,,,,,,,,,
acc,1778675487.0,232.0,0.27045150838089427,0.2727003064566758,-9.764976834157848,,,,,,,,,,
acc,1778675487.0,232.0,0.28368338495180323,0.2713936277907467,-9.772578998773232,,,,,,,,,,
acc,1778675487.0,232.0,0.2964400598643858,0.2749618593667453,-9.78082202319315,,,,,,,,,,
acc,1778675487.0,232.0,0.3108201457972765,0.27746826588308543,-9.787676759926157,,,,,,,,,,
acc,1778675487.0,232.0,0.32471459613524073,0.2802713728389853,-9.79340431231459,,,,,,,,,,
acc,1778675487.0,232.0,0.3370984147808012,0.2858532346658577,-9.799789750279896,,,,,,,,,,
acc,1778675487.0,232.0,0.3500796325950205,0.28893510802918393,-9.806436630304605,,,,,,,,,,
acc,1778675487.0,232.0,0.36187799388733755,0.2923439377583608,-9.812313176580851,,,,,,,,,,
acc,1778675487.0,232.0,0.37285920012429574,0.2932725256659736,-9.820585587188079,,,,,,,,,,
acc,1778675487.0,232.0,0.3830661894406338,0.2941926753673811,-9.826724025165099,,,,,,,,,,
acc,1778675487.0,232.0,0.39247049380507837,0.2985831379930201,-9.83486548240651,,,,,,,,,,
acc,1778675487.0,232.0,0.40249927259479323,0.3029337038801091,-9.841513091836244,,,,,,,,,,
acc,1778675487.0,232.0,0.4141762511725059,0.30724473557580667,-9.846396455201427,,,,,,,,,,
acc,1778675487.0,232.0,0.42574711943768945,0.3115165923327554,-9.84981557750272,,,,,,,,,,
acc,1778675487.0,232.0,0.43650290899515515,0.3140102974569792,-9.85352309718238,,,,,,,,,,
acc,1778675487.0,232.0,0.4478708918458017,0.31371260012230845,-9.85481865861085,,,,,,,,,,
acc,1778675487.0,232.0,0.4580706687757727,0.31132330446162293,-9.857522312362603,,,,,,,,,,
acc,1778675487.0,232.0,0.4685327297887092,0.30895572065966664,-9.860165903280432,,,,,,,,,,
acc,1778675487.0,232.0,0.48031958588075724,0.3062546896442578,-9.861756062388567,,,,,,,,,,
acc,1778675487.0,232.0,0.49267377146245156,0.307056868633672,-9.861556944459963,,,,,,,,,,
acc,1778675487.0,232.0,0.505270654631844,0.3120403651974384,-9.863489433845977,,,,,,,,,,
acc,1778675487.0,232.0,0.5173981064154781,0.31942784135776076,-9.863984497166415,,,,,,,,,,
acc,1778675487.0,232.0,0.5280309834660875,0.3263932247312706,-9.864830023551804,,,,,,,,,,
acc,1778675487.0,232.0,0.5382122763250334,0.3287517438480065,-9.865987343023216,,,,,,,,,,
acc,1778675487.0,232.0,0.5493659447812838,0.3300594216417945,-9.865359309644184,,,,,,,,,,
acc,1778675487.0,232.0,0.5618026292245979,0.3302903219796782,-9.86509195415162,,,,,,,,,,
acc,1778675487.0,232.0,0.5748007380778237,0.3301996475936601,-9.862413248111908,,,,,,,,,,
acc,1778675487.0,232.0,0.5873612548250499,0.3307842354525222,-9.860504319924127,,,,,,,,,,
acc,1778675487.0,232.0,0.5990976997925731,0.33033411103324156,-9.85861273842969,,,,,,,,,,
acc,1778675487.0,232.0,0.6107274940683173,0.33056251523079183,-9.856702851636879,,,,,,,,,,
acc,1778675487.0,232.0,0.6229615394359701,0.33220870915626727,-9.853390454980062,,,,,,,,,,
acc,1778675487.0,232.0,0.6368237541175241,0.33242007862250733,-9.852237947343193,,,,,,,,,,
acc,1778675487.0,232.0,0.6502050300845009,0.3329844891188071,-9.849321085660122,,,,,,,,,,
acc,1778675487.0,232.0,0.6638196794145298,0.3346086742339958,-9.847531127755602,,,,,,,,,,
acc,1778675487.0,232.0,0.6783400105988109,0.33586312929471407,-9.842598237494885,,,,,,,,,,
acc,1778675487.0,232.0,0.6927283935338696,0.33987492676628034,-9.838065134860834,,,,,,,,,,
acc,1778675487.0,232.0,0.7062760946174739,0.3455896011635891,-9.833608719514643,,,,,,,,,,
acc,1778675487.0,232.0,0.7193812184619544,0.35093287811404117,-9.830151211556322,,,,,,,,,,
acc,1778675487.0,232.0,0.7306279124722169,0.35587262911032647,-9.827470549443051,,,,,,,,,,
acc,1778675487.0,232.0,0.7420918827258254,0.36076749190900426,-9.826234112143863,,,,,,,,,,
acc,1778675487.0,232.0,0.7541616018499172,0.3624941708251076,-9.821175274296358,,,,,,,,,,
acc,1778675487.0,232.0,0.7664766126347206,0.362430332130335,-9.817156312492866,,,,,,,,,,
acc,1778675487.0,232.0,0.7800640861288398,0.3616926352723638,-9.812534936721624,,,,,,,,,,
acc,1778675487.0,232.0,0.7935280883800512,0.36199104201504034,-9.807600585167837,,,,,,,,,,
acc,1778675487.0,232.0,0.8065147705279119,0.3657654115453437,-9.804059949294588,,,,,,,,,,
acc,1778675487.0,232.0,0.8190284791330774,0.3670917119038931,-9.801261420301262,,,,,,,,,,
acc,1778675487.0,232.0,0.8311090065311919,0.3656017238118551,-9.797742885845128,,,,,,,,,,
acc,1778675487.0,232.0,0.842724785652484,0.3627409045384892,-9.795321228290918,,,,,,,,,,
acc,1778675487.0,232.0,0.8563293141316166,0.359196149289732,-9.791217738350527,,,,,,,,,,
acc,1778675487.0,232.0,0.8694552455262229,0.3567485092148469,-9.786832069974787,,,,,,,,,,
acc,1778675487.0,232.0,0.881077537953379,0.3588311856808263,-9.784154598733524,,,,,,,,,,
acc,1778675487.0,232.0,0.8918842752873837,0.3626342692607277,-9.781536952402092,,,,,,,,,,
acc,1778675487.0,232.0,0.9022378485374513,0.36988145905995784,-9.780717920025085,,,,,,,,,,
acc,1778675487.0,232.0,0.9111129665332113,0.3750039925520561,-9.780864741635915,,,,,,,,,,
acc,1778675487.0,232.0,0.9202624059700929,0.37692077892684556,-9.778951419876066,,,,,,,,,,
acc,1778675488.0,233.0,0.9303581032384285,0.3802400124680812,-9.775990590326959,,,,,,,,,,
acc,1778675488.0,233.0,0.9410719921494215,0.3793404765922223,-9.772346733609623,,,,,,,,,,
acc,1778675488.0,233.0,0.9516885224763748,0.3759998496068813,-9.769126454340647,,,,,,,,,,
acc,1778675488.0,233.0,0.9618536080695312,0.37375447376660587,-9.766254905606441,,,,,,,,,,
acc,1778675488.0,233.0,0.9705419603088391,0.37326883464757993,-9.76340945103105,,,,,,,,,,
acc,1778675488.0,233.0,0.9784414276607019,0.3706933141428759,-9.762364689622071,,,,,,,,,,
acc,1778675488.0,233.0,0.9859141406042171,0.36988053042944585,-9.761329422103898,,,,,,,,,,
acc,1778675488.0,233.0,0.9933189479760829,0.3697495708677293,-9.758919191295972,,,,,,,,,,
acc,1778675488.0,233.0,1.0013663994776738,0.3706846957611559,-9.758660660489607,,,,,,,,,,
acc,1778675488.0,233.0,1.00898576090571,0.37054642863832393,-9.756594148499568,,,,,,,,,,
acc,1778675488.0,233.0,1.016890845920599,0.3700899414671854,-9.756356745677293,,,,,,,,,,
acc,1778675488.0,233.0,1.025079067199895,0.37137694422670725,-9.755766529306545,,,,,,,,,,
acc,1778675488.0,233.0,1.0345772428058742,0.37300721358838407,-9.756140087641043,,,,,,,,,,
acc,1778675488.0,233.0,1.0432791836351014,0.3732028031996825,-9.754486945664151,,,,,,,,,,
acc,1778675488.0,233.0,1.0515825722289065,0.37339661546124686,-9.754872131751426,,,,,,,,,,
acc,1778675488.0,233.0,1.0591005741529496,0.3746535700187918,-9.754295406271883,,,,,,,,,,
acc,1778675488.0,233.0,1.0669052298187531,0.37554413159655736,-9.753333465442806,,,,,,,,,,
acc,1778675488.0,233.0,1.0749939252771505,0.37713653315269935,-9.753409665950151,,,,,,,,,,
acc,1778675488.0,233.0,1.0822991850118797,0.37729459906844076,-9.751426364830595,,,,,,,,,,
acc,1778675488.0,233.0,1.0895380608453338,0.37745122861743735,-9.751200418923153,,,,,,,,,,
acc,1778675488.0,233.0,1.0980955269253994,0.37693199657799464,-9.749237193535587,,,,,,,,,,
acc,1778675488.0,233.0,1.1062202683592106,0.3749976176034518,-9.747966246521644,,,,,,,,,,
acc,1778675488.0,233.0,1.1146261409221592,0.37276134918350035,-9.748410687100026,,,,,,,,,,
acc,1778675488.0,233.0,1.121926228115869,0.37157481117741353,-9.746792279803287,,,,,,,,,,
acc,1778675488.0,233.0,1.1298344166860506,0.37004408454499077,-9.74554355005714,,,,,,,,,,
acc,1778675488.0,233.0,1.1401200077733555,0.3695921622438217,-9.74288630242203,,,,,,,,,,
acc,1778675488.0,233.0,1.1503121322779428,0.3705287175310605,-9.739543268928058,,,,,,,,,,
acc,1778675488.0,233.0,1.160056668682919,0.37248617134617606,-9.736976041033829,,,,,,,,,,
acc,1778675488.0,233.0,1.1679733224619093,0.3754907319164297,-9.735816512801243,,,,,,,,,,
acc,1778675488.0,233.0,1.1751435982436007,0.3781130187703989,-9.73537745399546,,,,,,,,,,
acc,1778675488.0,233.0,1.181893754968328,0.380001552995664,-9.737036688519787,,,,,,,,,,
acc,1778675488.0,233.0,1.1892570103634283,0.38013358408153003,-9.735166676541084,,,,,,,,,,
acc,1778675488.0,233.0,1.1979732201108308,0.3778506444269217,-9.736117893795099,,,,,,,,,,
acc,1778675488.0,233.0,1.2055453209652234,0.37416858489123117,-9.73571159065864,,,,,,,,,,
acc,1778675488.0,233.0,1.2141135165910029,0.3694905846900209,-9.736267390982505,,,,,,,,,,
acc,1778675488.0,233.0,1.223278281030146,0.36659442680254334,-9.734084902302936,,,,,,,,,,
acc,1778675488.0,233.0,1.2313303639450828,0.3658188902428992,-9.732632178832624,,,,,,,,,,
acc,1778675488.0,233.0,1.2403386765212612,0.36714470463303356,-9.73357093305643,,,,,,,,,,
acc,1778675488.0,233.0,1.2496201001810578,0.36774853853115996,-9.730703014827332,,,,,,,,,,
