sensor,time,t,ax,ay,az,wx,wy,wz,lat,lon,alt,v_kmh,satellites,x,y
acc,1778675319.0,64.0,0.078125,0.394531,-9.652344,,,,,,,,,,
acc,1778675319.0,64.0,0.078125,0.394531,-9.640134816285409,,,,,,,,,,
acc,1778675319.0,64.0,0.08742876244274096,0.40383476244274097,-9.643042717493723,,,,,,,,,,
acc,1778675319.0,64.0,0.0931548250674701,0.41707685963713304,-9.644080839705342,,,,,,,,,,
acc,1778675319.0,64.0,0.09703433133757332,0.4197431053488132,-9.639109038368629,,,,,,,,,,
acc,1778675319.0,64.0,0.09983667891518021,0.4271005907095985,-9.640406221202541,,,,,,,,,,
acc,1778675319.0,64.0,0.10672693829849977,0.4374357877411318,-9.641387213602204,,,,,,,,,,
acc,1778675319.0,64.0,0.11212053839997478,0.445526037564381,-9.646834803515302,,,,,,,,,,
acc,1778675319.0,64.0,0.11645767180486916,0.4520316167883133,-9.655054542760094,,,,,,,,,,
acc,1778675319.0,64.0,0.12316975532448365,0.4608752310968486,-9.661808371001102,,,,,,,,,,
acc,1778675319.0,64.0,0.12589111041907494,0.4682713530009535,-9.670027545372301,,,,,,,,,,
acc,1778675319.0,64.0,0.1282009133863222,0.4772238138496929,-9.677003729181848,,,,,,,,,,
acc,1778675319.0,64.0,0.13267430582899248,0.48491815056832327,-9.685764168214812,,,,,,,,,,
acc,1778675319.0,64.0,0.1365606046374292,0.4916026728865741,-9.693374876242668,,,,,,,,,,
acc,1778675319.0,64.0,0.13778404295235633,0.49746437922729536,-9.702476015950552,,,,,,,,,,
acc,1778675319.0,64.0,0.1388656985322798,0.5026467797569794,-9.710522435969107,,,,,,,,,,
acc,1778675319.0,64.0,0.1376645639502443,0.5072618437069119,-9.719852361906712,,,,,,,,,,
acc,1778675319.0,64.0,0.13864168628975468,0.5095498470497863,-9.728214547359089,,,,,,,,,,
acc,1778675319.0,64.0,0.1375684912225674,0.5096583563388056,-9.73555731454518,,,,,,,,,,
acc,1778675319.0,64.0,0.1365960112737494,0.5078927438613859,-9.744074882913829,,,,,,,,,,
acc,1778675319.0,64.0,0.13392862316034132,0.5062852794156109,-9.753611536809066,,,,,,,,,,
acc,1778675319.0,64.0,0.13148973128963387,0.5031083141865135,-9.762501964473495,,,,,,,,,,
acc,1778675319.0,64.0,0.1276122711928839,0.5001921008850475,-9.772301445473785,,,,,,,,,,
acc,1778675319.0,64.0,0.12404024493946678,0.49750560245218634,-9.779753244431152,,,,,,,,,,
acc,1778675319.0,64.0,0.11922105590003972,0.4935048519238468,-9.788158476124524,,,,,,,,,,
acc,1778675319.0,64.0,0.11621701375205563,0.4897957061587278,-9.79595107136871,,,,,,,,,,
acc,1778675319.0,64.0,0.11342402441947898,0.48634715116361854,-9.8031961878877,,,,,,,,,,
acc,1778675319.0,64.0,0.11082041069949956,0.48176475641743843,-9.809813297613003,,,,,,,,,,
acc,1778675319.0,64.0,0.109711838609684,0.4774825667268633,-9.814672430745489,,,,,,,,,,
acc,1778675319.0,64.0,0.10867351360154806,0.4734717273000419,-9.819223654338138,,,,,,,,,,
acc,1778675319.0,64.0,0.10769889378077083,0.4685853191455092,-9.823495643057884,,,,,,,,,,
acc,1778675319.0,64.0,0.10678222551561282,0.4639894601342516,-9.825092064884384,,,,,,,,,,
acc,1778675319.0,64.0,0.1059184281931584,0.4584812557100397,-9.826714145606688,,,,,,,,,,
acc,1778675319.0,64.0,0.10510299861935973,0.45328147947865655,-9.827099361546859,,,,,,,,,,
acc,1778675319.0,64.0,0.10544840415448613,0.4483645892478369,-9.828580064702315,,,,,,,,,,
acc,1778675319.0,64.0,0.10577553863316337,0.44261929171574027,-9.828893944468701,,,,,,,,,,
acc,1778675319.0,64.0,0.1060858356848563,0.4361076050402761,-9.829191669020664,,,,,,,,,,
acc,1778675319.0,64.0,0.10638058262072943,0.4299222427092853,-9.829474473510576,,,,,,,,,,
acc,1778675319.0,64.0,0.10767424885822967,0.424038878694427,-9.828628808161808,,,,,,,,,,
acc,1778675319.0,64.0,0.10979804744238222,0.41744474302480783,-9.827922467559356,,,,,,,,,,
acc,1778675319.0,64.0,0.11095080545429084,0.41115676219689906,-9.826279553248046,,,,,,,,,,
acc,1778675319.0,64.0,0.1120513289466029,0.40515370643946047,-9.824711083736862,,,,,,,,,,
acc,1778675319.0,64.0,0.11310315758524447,0.3994162678394259,-9.821445769554924,,,,,,,,,,
acc,1778675319.0,64.0,0.11492949878982812,0.3931068666327463,-9.818321608661478,,,,,,,,,,
acc,1778675319.0,64.0,0.11667867171945519,0.3870640561408283,-9.814525363600566,,,,,,,,,,
acc,1778675319.0,64.0,0.11835557095502704,0.3820598363182006,-9.8107983231795,,,,,,,,,,
acc,1778675319.0,64.0,0.11996468471097478,0.37725790261606584,-9.80636148352867,,,,,,,,,,
acc,1778675319.0,64.0,0.1223551649357932,0.3726459506947038,-9.802945210024578,,,,,,,,,,
acc,1778675319.0,64.0,0.12382278802701777,0.36904291155036106,-9.79966127654308,,,,,,,,,,
acc,1778675319.0,64.0,0.12605081873383261,0.3663926848520505,-9.795685854825047,,,,,,,,,,
acc,1778675319.0,64.0,0.12739348930581015,0.36464349564998205,-9.793543507583236,,,,,,,,,,
acc,1778675319.0,64.0,0.12868722358739274,0.3629580591155706,-9.790610831336497,,,,,,,,,,
acc,1778675319.0,64.0,0.12993472054706695,0.3621098150628045,-9.78855992320405,,,,,,,,,,
acc,1778675319.0,64.0,0.1311384834402302,0.36197977113295454,-9.786580914687852,,,,,,,,,,
acc,1778675319.0,64.0,0.13230083722363328,0.36185420067823443,-9.785423355582292,,,,,,,,,,
acc,1778675319.0,64.0,0.13275591541253284,0.3624751200311672,-9.784304881448366,,,,,,,,,,
acc,1778675319.0,64.0,0.1331959068057671,0.36307545460629514,-9.783881898658425,,,,,,,,,,
acc,1778675319.0,64.0,0.1336215720974806,0.363656242312548,-9.78412180019028,,,,,,,,,,
acc,1778675319.0,64.0,0.1333223271916241,0.3649297644409601,-9.784354027855317,,,,,,,,,,
acc,1778675319.0,64.0,0.13233075764132834,0.3661632546956297,-9.785350854504811,,,,,,,,,,
acc,1778675319.0,64.0,0.1313698259235254,0.36735863217465714,-9.786316880886282,,,,,,,,,,
acc,1778675319.0,64.0,0.1297545180238815,0.3692012459331146,-9.787185207974389,,,,,,,,,,
acc,1778675319.0,64.0,0.1281874714789707,0.37098880700703274,-9.788027591623704,,,,,,,,,,
acc,1778675319.0,64.0,0.12666648173602355,0.37272383017347976,-9.788845216916581,,,,,,,,,,
acc,1778675319.0,64.0,0.12518947760713275,0.37440867807758066,-9.789639197243577,,,,,,,,,,
acc,1778675319.0,64.0,0.12310370101158874,0.37604557255591486,-9.791061389970709,,,,,,,,,,
acc,1778675319.0,64.0,0.12236296760563489,0.37763660496373996,-9.7930870300793,,,,,,,,,,
acc,1778675319.0,64.0,0.12164266879060552,0.37918374560680845,-9.794420767101204,,,,,,,,,,
acc,1778675319.0,64.0,0.12031294026667201,0.38131785169694293,-9.79571826815068,,,,,,,,,,
acc,1778675319.0,64.0,0.11964098290724326,0.38401701190562854,-9.797665442590636,,,,,,,,,,
acc,1778675319.0,64.0,0.11837116035117427,0.38602943324785066,-9.798884137116417,,,,,,,,,,
acc,1778675319.0,64.0,0.11713433338411938,0.38798956301026594,-9.800680336775969,,,,,,,,,,
acc,1778675319.0,64.0,0.1159291834667791,0.3898994908207631,-9.802430532986834,,,,,,,,,,
acc,1778675319.0,64.0,0.11475446230781268,0.3917611949779032,-9.803539574382011,,,,,,,,,,
acc,1778675319.0,64.0,0.11360898725111356,0.3935765497611893,-9.805212140947972,,,,,,,,,,
acc,1778675319.0,64.0,0.11249163702158252,0.39534733217318707,-9.806258158811412,,,,,,,,,,
acc,1778675319.0,64.0,0.11140134779730894,0.39649521756243045,-9.807278843261788,,,,,,,,,,
acc,1778675319.0,64.0,0.11091179457130423,0.3981903607538758,-9.808849810099332,,,,,,,,,,
acc,1778675319.0,64.0,0.1098642692752813,0.39984553767042713,-9.80981423870586,,,,,,,,,,
acc,1778675319.0,64.0,0.10827664018363467,0.40202667929669267,-9.810812671507964,,,,,,,,,,
acc,1778675319.0,64.0,0.10728507535190493,0.40359812497973957,-9.811732215370455,,,,,,,,,,
acc,1778675319.0,64.0,0.10631599411993262,0.4051339383423899,-9.81263090869902,,,,,,,,,,
acc,1778675319.0,64.0,0.10591887716356733,0.4060850986845511,-9.812959227775666,,,,,,,,,,
acc,1778675319.0,64.0,0.10553054082583192,0.407015228002762,-9.8138260620836,,,,,,,,,,
acc,1778675319.0,64.0,0.10515068552905801,0.40738362384610843,-9.814186684469835,,,,,,,,,,
acc,1778675319.0,64.0,0.10531622394154078,0.4072068732134936,-9.81507671129232,,,,,,,,,,
acc,1778675319.0,64.0,0.10601129839931828,0.4070338902465403,-9.815414701347276,,,,,,,,,,
acc,1778675319.0,64.0,0.10669173166615208,0.4063354950729695,-9.81569266902366,,,,,,,,,,
acc,1778675319.0,64.0,0.10683284487699146,0.4056516392286267,-9.814914513702961,,,,,,,,,,
acc,1778675319.0,64.0,0.10697105425044642,0.40498185581701035,-9.814152371316117,,,,,,,,,,
acc,1778675319.0,64.0,0.10710645194270382,0.40385978828700597,-9.813975170334249,,,,,,,,,,
acc,1778675319.0,64.0,0.10723912614744743,0.4027602908381946,-9.81323605726177,,,,,,,,,,
acc,1778675319.0,64.0,0.10736916130661933,0.4011721100808203,-9.813022212688326,,,,,,,,,,
acc,1778675319.0,64.0,0.1080037763493046,0.3991080352715049,-9.812356148206202,,,,,,,,,,
acc,1778675319.0,64.0,0.10862604209747702,0.3975879366410435,-9.81170304500911,,,,,,,,,,
acc,1778675319.0,64.0,0.10968684193953483,0.39559653398245886,-9.811012447750034,,,,,,,,,,
acc,1778675319.0,64.0,0.11027976726465234,0.3936430624251982,-9.810384755498246,,,,,,,,,,
acc,1778675319.0,64.0,0.1108615169028783,0.3917264106588129,-9.809323985195713,,,,,,,,,,
acc,1778675319.0,64.0,0.1114324146785539,0.38984551180082494,-9.808283002328812,,,,,,,,,,
acc,1778675319.0,64.0,0.11150437710233047,0.38799934119530716,-9.80726123980205,,,,,,,,,,
acc,1778675319.0,64.0,0.11206056270421087,0.38618691434074826,-9.806258152743386,,,,,,,,,,
acc,1778675319.0,64.0,0.11260668364021457,0.38489003777050573,-9.805273217424096,,,,,,,,,,
acc,1778675319.0,64.0,0.11314301914522867,0.38361639872027664,-9.80430593024089,,,,,,,,,,
acc,1778675319.0,64.0,0.11457688246348163,0.381887975129808,-9.803737719000651,,,,,,,,,,
acc,1778675319.0,64.0,0.11551073762883624,0.3806647241551872,-9.803179493535012,,,,,,,,,,
acc,1778675319.0,64.0,0.11642833657455996,0.37946276709984306,-9.802630985460368,,,,,,,,,,
acc,1778675319.0,64.0,0.11733011167410447,0.3782815376005259,-9.802091936319217,,,,,,,,,,
acc,1778675319.0,64.0,0.11779581429314111,0.3771204900453188,-9.801608847004452,,,,,,,,,,
acc,1778675319.0,64.0,0.118253632726099,0.37644415342777826,-9.801087421222174,,,,,,,,,,
acc,1778675319.0,64.0,0.11870377029122271,0.3757791637805578,-9.801083791093488,,,,,,,,,,
acc,1778675319.0,64.0,0.11914642306083044,0.3755397162962596,-9.801080221325838,,,,,,,,,,
acc,1778675319.0,64.0,0.11912344378234004,0.37530421530135294,-9.801489227234587,,,,,,,,,,
acc,1778675319.0,64.0,0.11910083995274703,0.3750725620594953,-9.801891550565486,,,,,,,,,,
acc,1778675319.0,64.0,0.1190786022719064,0.3748446612590167,-9.802287356850897,,,,,,,,,,
acc,1778675319.0,64.0,0.11905672175938616,0.3750724972178013,-9.802722011253282,,,,,,,,,,
acc,1778675319.0,64.0,0.11903518974075476,0.3752967044023866,-9.8035998278982,,,,,,,,,,
acc,1778675319.0,64.0,0.11856584710418656,0.375517370086548,-9.804015639592116,,,,,,,,,,
acc,1778675319.0,64.0,0.11810385761499904,0.37662706558571685,-9.804380315310716,,,,,,,,,,
acc,1778675319.0,64.0,0.11764904781723325,0.3772751361276469,-9.804783759336479,,,,,,,,,,
acc,1778675319.0,64.0,0.11675867566807693,0.3779132151655653,-9.805180983340898,,,,,,,,,,
acc,1778675319.0,64.0,0.11632272162355681,0.3785415339297228,-9.805572131271985,,,,,,,,,,
acc,1778675319.0,64.0,0.11589338442099081,0.3787212533564674,-9.80547437669784,,,,,,,,,,
acc,1778675319.0,64.0,0.11547051379253877,0.3793356315781936,-9.805859193375287,,,,,,,,,,
acc,1778675319.0,64.0,0.11505396424972089,0.37950511977439877,-9.806238257798952,,,,,,,,,,
acc,1778675319.0,64.0,0.11464359489274367,0.3801061769512993,-9.806611698189117,,,,,,,,,,
acc,1778675319.0,64.0,0.11423926922883904,0.3811308677631535,-9.806936392402692,,,,,,,,,,
acc,1778675320.0,65.0,0.11384085499912477,0.38170964337913216,-9.807299430598192,,,,,,,,,,
acc,1778675320.0,65.0,0.11344822401352475,0.3827094334622103,-9.807614259677061,,,,,,,,,,
acc,1778675320.0,65.0,0.11306125199331564,0.3836948136344923,-9.807924551144467,,,,,,,,,,
acc,1778675320.0,65.0,0.11267981842089354,0.3846660907803291,-9.808230401636811,,,,,,,,,,
acc,1778675320.0,65.0,0.1123038063963782,0.38519850515961773,-9.808106836595703,,,,,,,,,,
acc,1778675320.0,65.0,0.1123567804404432,0.3857234034917233,-9.80845105839138,,,,,,,,,,
acc,1778675320.0,65.0,0.11240901167535114,0.38624094162895434,-9.808790453462832,,,,,,,,,,
acc,1778675320.0,65.0,0.11288149093015125,0.38633028451904605,-9.80866203928268,,,,,,,,,,
acc,1778675320.0,65.0,0.1125080754087463,0.38683807470405995,-9.80941672378951,,,,,,,,,,
acc,1778675320.0,65.0,0.11213979393830778,0.3873388833349052,-9.809282387799373,,,,,,,,,,
acc,1778675320.0,65.0,0.11177654370122472,0.38783285022840963,-9.809608760873914,,,,,,,,,,
acc,1778675320.0,65.0,0.11141822479822792,0.3883201112328857,-9.809473172822802,,,,,,,,,,
acc,1778675320.0,65.0,0.11106474014333315,0.3888007983709919,-9.809339414053577,,,,,,,,,,
acc,1778675320.0,65.0,0.1107159953632681,0.38886146605987293,-9.809207448855345,,,,,,,,,,
acc,1778675320.0,65.0,0.11078432697351227,0.38850890744720673,-9.809489670779609,,,,,,,,,,
acc,1778675320.0,65.0,0.11085175326846765,0.38816101983089357,-9.809397974435615,,,,,,,,,,
acc,1778675320.0,65.0,0.11132848949365837,0.3874485234697818,-9.809307485833946,,,,,,,,,,
acc,1778675320.0,65.0,0.11179898291899862,0.3871135802461802,-9.809586405257788,,,,,,,,,,
acc,1778675320.0,65.0,0.11226335046589715,0.3864157225145711,-9.809045532289282,,,,,,,,,,
acc,1778675320.0,65.0,0.11231466694673063,0.3857268998103463,-9.808226738772046,,,,,,,,,,
acc,1778675320.0,65.0,0.11236532273251101,0.38504694563618713,-9.808514783052443,,,,,,,,,,
acc,1778675320.0,65.0,0.11241532990126056,0.3847402468386821,-9.80879913909816,,,,,,,,,,
acc,1778675320.0,65.0,0.11286877240206306,0.38443745392754025,-9.807988862345058,,,,,,,,,,
acc,1778675320.0,65.0,0.11331647095116759,0.38377567291594444,-9.807471032174858,,,,,,,,,,
acc,1778675320.0,65.0,0.11412050533947733,0.3831222309493403,-9.807361932089968,,,,,,,,,,
acc,1778675320.0,65.0,0.11455330239673796,0.38247698031579286,-9.807294326056107,,,,,,,,,,
acc,1778675320.0,65.0,0.11498070174898202,0.38183977703959965,-9.806787122480776,,,,,,,,,,
acc,1778675320.0,65.0,0.11540279754242382,0.3815700609424055,-9.806725692818981,,,,,,,,,,
acc,1778675320.0,65.0,0.1158196815773349,0.3809448649416996,-9.806226482679781,,,,,,,,,,
acc,1778675320.0,65.0,0.11583361719018939,0.38068540648153404,-9.805733406305158,,,,,,,,,,
acc,1778675320.0,65.0,0.11584738240265038,0.3808261255862433,-9.80564337426697,,,,,,,,,,
acc,1778675320.0,65.0,0.11586098009834232,0.3805689318286604,-9.805594055888818,,,,,,,,,,
acc,1778675320.0,65.0,0.11587441309113933,0.38031485334570875,-9.805545334882446,,,,,,,,,,
acc,1778675320.0,65.0,0.11628232357837338,0.38006383819224804,-9.80585238891647,,,,,,,,,,
acc,1778675320.0,65.0,0.11668533842379299,0.3798158356612126,-9.806155757763142,,,,,,,,,,
acc,1778675320.0,65.0,0.11708353807898168,0.379570796245254,-9.806101663361654,,,,,,,,,,
acc,1778675320.0,65.0,0.11747700110596132,0.37932867159980027,-9.806048212418956,,,,,,,,,,
acc,1778675320.0,65.0,0.11747410309607031,0.37948111564641934,-9.806387105678061,,,,,,,,,,
acc,1778675320.0,65.0,0.11747123926083239,0.3796317620033809,-9.806291891387122,,,,,,,,,,
acc,1778675320.0,65.0,0.11746840905440087,0.3797806393838646,-9.806627153501944,,,,,,,,,,
acc,1778675320.0,65.0,0.1174656119433809,0.379927775846045,-9.806958495182714,,,,,,,,,,
acc,1778675320.0,65.0,0.11707384719083111,0.3800731988126561,-9.807285978183634,,,,,,,,,,
acc,1778675320.0,65.0,0.11746332787927835,0.38021693508985793,-9.80760966287042,,,,,,,,,,
acc,1778675320.0,65.0,0.11707287106179622,0.37997129679012914,-9.80754188424037,,,,,,,,,,
acc,1778675320.0,65.0,0.11707401196137471,0.3797284850304105,-9.807474885533527,,,,,,,,,,
acc,1778675320.0,65.0,0.11707513978349489,0.3798749442906837,-9.807370007990933,,,,,,,,,,
acc,1778675320.0,65.0,0.11707625472731355,0.38001973117152693,-9.807690817907652,,,,,,,,,,
acc,1778675320.0,65.0,0.11669203781329993,0.38016287097451223,-9.808007978329973,,,,,,,,,,
acc,1778675320.0,65.0,0.1163121755457851,0.37991965110713466,-9.80793679691363,,,,,,,,,,
acc,1778675320.0,65.0,0.11593660289372965,0.3796791778134296,-9.80786641931733,,,,,,,,,,
acc,1778675320.0,65.0,0.11556525620684885,0.37944141033911544,-9.807796833613809,,,,,,,,,,
acc,1778675320.0,65.0,0.11519807317674968,0.3792063087891029,-9.807728028127256,,,,,,,,,,
acc,1778675320.0,65.0,0.11521756180609731,0.37897383410345326,-9.808004306470416,,,,,,,,,,
acc,1778675320.0,65.0,0.11485478267748862,0.37874394803414596,-9.80793365983132,,,,,,,,,,
acc,1778675320.0,65.0,0.11449602948573209,0.3788981459321,-9.807825645864947,,,,,,,,,,
acc,1778675320.0,65.0,0.11414124432972617,0.37905063830440067,-9.80771882660092,,,,,,,,,,
acc,1778675320.0,65.0,0.11379037048683281,0.37920144953135115,-9.808031793242888,,,,,,,,,,
acc,1778675320.0,65.0,0.11344335238084989,0.3793506035004979,-9.807923239505547,,,,,,,,,,
acc,1778675320.0,65.0,0.11310013555103435,0.3794981236199451,-9.807815874878306,,,,,,,,,,
acc,1778675320.0,65.0,0.11276066662213671,0.37964403283123443,-9.807368458263792,,,,,,,,,,
acc,1778675320.0,65.0,0.11242489327540887,0.37978835362180613,-9.807266730075956,,,,,,,,,,
acc,1778675320.0,65.0,0.11209276422054906,0.3799311080370577,-9.807166105987688,,,,,,,,,,
acc,1778675320.0,65.0,0.11214204516647427,0.3800723176920145,-9.807066570763089,,,,,,,,,,
acc,1778675320.0,65.0,0.11219079440164574,0.3802120037826268,-9.806968109461653,,,,,,,,,,
acc,1778675320.0,65.0,0.11223901918082987,0.38035018709670715,-9.80653143975313,,,,,,,,,,
acc,1778675320.0,65.0,0.11228672662005258,0.38048688802452074,-9.806438353109746,,,,,,,,,,
acc,1778675320.0,65.0,0.11271007336598311,0.3809982858644014,-9.806346262277833,,,,,,,,,,
acc,1778675320.0,65.0,0.11275314858127054,0.3811284632037052,-9.805916972321247,,,,,,,,,,
acc,1778675320.0,65.0,0.11317113371724995,0.3812572555411399,-9.805830083042899,,,,,,,,,,
acc,1778675320.0,65.0,0.1132096949608795,0.3813846812650562,-9.805744115745352,,,,,,,,,,
acc,1778675320.0,65.0,0.11362246445808663,0.38113614207101854,-9.805696517969524,,,,,,,,,,
acc,1778675320.0,65.0,0.11403087683390001,0.3808902264125058,-9.805649422627353,,,,,,,,,,
acc,1778675320.0,65.0,0.11443498903491656,0.3806469000004986,-9.805939338256808,,,,,,,,,,
acc,1778675320.0,65.0,0.11483485697600211,0.3804061291672095,-9.805890010179388,,,,,,,,,,
acc,1778675320.0,65.0,0.11523053556571188,0.3801678808507767,-9.806177087450349,,,,,,,,,,
acc,1778675320.0,65.0,0.1156220787309424,0.37993212258042053,-9.806125580167421,,,,,,,,,,
acc,1778675320.0,65.0,0.11600953944084158,0.3800713492804838,-9.806037359154711,,,,,,,,,,
acc,1778675320.0,65.0,0.11602076837477236,0.379836926369623,-9.805987274059197,,,,,,,,,,
acc,1778675320.0,65.0,0.11603188077310903,0.37997681839776876,-9.805900522452308,,,,,,,,,,
acc,1778675320.0,65.0,0.1164144469241075,0.37974369308176603,-9.806186247453676,,,,,,,,,,
acc,1778675320.0,65.0,0.11679306059514553,0.37951297629860753,-9.806469020488857,,,,,,,,,,
acc,1778675320.0,65.0,0.11716777121111896,0.3792846379301178,-9.806748878471542,,,,,,,,,,
acc,1778675320.0,65.0,0.11787222702014626,0.37905864837245645,-9.807062922206036,,,,,,,,,,
acc,1778675320.0,65.0,0.11823611335400262,0.3788349785240856,-9.807003358936372,,,,,,,,,,
acc,1778675320.0,65.0,0.11822618310332098,0.378983688992629,-9.80731450447904,,,,,,,,,,
acc,1778675320.0,65.0,0.11858616420058031,0.3787610694810666,-9.8072526501387,,,,,,,,,,
acc,1778675320.0,65.0,0.11857293723782684,0.3789102567392671,-9.807154475123351,,,,,,,,,,
acc,1778675320.0,65.0,0.11855984494105769,0.379057925096315,-9.80705729964473,,,,,,,,,,
acc,1778675320.0,65.0,0.11854688567833153,0.3792040929589188,-9.806961111590015,,,,,,,,,,
acc,1778675320.0,65.0,0.11853405784436137,0.3789800344994043,-9.8069027715496,,,,,,,,,,
acc,1778675320.0,65.0,0.11852135985991566,0.3787582440677178,-9.80684502205522,,,,,,,,,,
acc,1778675320.0,65.0,0.11850879017123635,0.3785386945250113,-9.8067878560405,,,,,,,,,,
acc,1778675320.0,65.0,0.11849634724947318,0.37832135916749104,-9.806731266552342,,,,,,,,,,
acc,1778675320.0,65.0,0.11848402959013377,0.37810621171681186,-9.806675246748425,,,,,,,,,,
acc,1778675320.0,65.0,0.1184718357125489,0.37789322631073874,-9.806619789894775,,,,,,,,,,
acc,1778675320.0,65.0,0.11809246554170728,0.37768237749406564,-9.8065648893634,,,,,,,,,,
acc,1778675320.0,65.0,0.11771689454990235,0.37784070261624525,-9.80614347622353,,,,,,,,,,
acc,1778675320.0,65.0,0.11734507835426397,0.3779974448724027,-9.806056433923384,,,,,,,,,,
acc,1778675320.0,65.0,0.11661034244064458,0.37815262268333494,-9.805970260392861,,,,,,,,,,
acc,1778675320.0,65.0,0.11624934446708042,0.37830625418682756,-9.805884945559663,,,,,,,,,,
acc,1778675320.0,65.0,0.11589193798443256,0.37809216046780514,-9.80583709730796,,,,,,,,,,
acc,1778675320.0,65.0,0.11553808166127338,0.3778801933661916,-9.805387127433256,,,,,,,,,,
acc,1778675320.0,65.0,0.11518773479002307,0.37803611631476786,-9.805307417420568,,,,,,,,,,
acc,1778675320.0,65.0,0.11484085727395607,0.378190495216189,-9.805630652175005,,,,,,,,,,
acc,1778675320.0,65.0,0.1144974096145523,0.3787087509632573,-9.805548750008766,,,,,,,,,,
acc,1778675320.0,65.0,0.11415735289918275,0.3788566779797572,-9.805467656482953,,,,,,,,,,
acc,1778675320.0,65.0,0.11382064878911884,0.3790031465898268,-9.80538736245491,,,,,,,,,,
acc,1778675320.0,65.0,0.11348725950785603,0.3791481732265061,-9.805307858916049,,,,,,,,,,
acc,1778675320.0,65.0,0.1135218064421054,0.37929177408321074,-9.805229136989146,,,,,,,,,,
acc,1778675320.0,65.0,0.11355601420702725,0.37943396511855043,-9.805552114234613,,,,,,,,,,
acc,1778675320.0,65.0,0.11358988658652228,0.37921046468673403,-9.80550761819273,,,,,,,,,,
acc,1778675320.0,65.0,0.1136234273102319,0.37935327892935927,-9.805827693455246,,,,,,,,,,
acc,1778675320.0,65.0,0.11365664005461033,0.37913073824362126,-9.80610824487093,,,,,,,,,,
acc,1778675320.0,65.0,0.11368952844396929,0.37891037088591767,-9.806386056426915,,,,,,,,,,
acc,1778675320.0,65.0,0.1137220960514961,0.3790557848217355,-9.806697519635202,,,,,,,,,,
acc,1778675320.0,65.0,0.11375434640024615,0.37919978220132144,-9.806606120771141,,,,,,,,,,
acc,1778675320.0,65.0,0.11378628296411036,0.37934237853555236,-9.806915267754627,,,,,,,,,,
acc,1778675320.0,65.0,0.1138179091687584,0.37984676289933716,-9.80682192208261,,,,,,,,,,
acc,1778675320.0,65.0,0.1142122427982045,0.37998322773993576,-9.806729482473584,,,,,,,,,,
acc,1778675320.0,65.0,0.11460275324967255,0.3797555024096771,-9.806674223945752,,,,,,,,,,
acc,1778675320.0,65.0,0.11531593403407743,0.37989270495523736,-9.806619500555087,,,,,,,,,,
acc,1778675320.0,65.0,0.11569589151506411,0.3796659996624165,-9.806891640224883,,,,,,,,,,
acc,1778675320.0,65.0,0.11607217755733482,0.3794414849688885,-9.806834941934332,,,,,,,,,,
acc,1778675320.0,65.0,0.11644483156902372,0.3795814419891777,-9.806742562305661,,,,,,,,,,
acc,1778675320.0,65.0,0.11681389243063689,0.3797200495363302,-9.807049468308014,,,,,,,,,,
acc,1778675320.0,65.0,0.11717939850471017,0.3794952832889872,-9.806991370199885,,,,,,,,,,
acc,1778675321.0,66.0,0.11717947819756792,0.37927267976344814,-9.806933831117174,,,,,,,,,,
acc,1778675321.0,66.0,0.11717955712438727,0.3790522159886481,-9.806876845122266,,,,,,,,,,
acc,1778675321.0,66.0,0.11754129328550601,0.3788338692950688,-9.80682040635549,,,,,,,,,,
acc,1778675321.0,66.0,0.11753802340312114,0.3786176173093471,-9.807089902296834,,,,,,,,,,
acc,1778675321.0,66.0,0.11789620057949805,0.3780781526988922,-9.807031530056268,,,,,,,,,,
acc,1778675321.0,66.0,0.11788965018792559,0.3778690328427574,-9.806576281636238,,,,,,,,,,
acc,1778675321.0,66.0,0.11752197092631861,0.3776619135170077,-9.806522696231545,,,,,,,,,,
acc,1778675321.0,66.0,0.11715780584537946,0.37745677378272935,-9.806072439924558,,,,,,,,,,
acc,1778675321.0,66.0,0.11715808485829776,0.37725359296819977,-9.805626483203776,,,,,,,,,,
acc,1778675321.0,66.0,0.11679750396804747,0.377052350664274,-9.805581721467581,,,,,,,,,,
acc,1778675321.0,66.0,0.11644036034607218,0.37685302671987747,-9.805140564325034,,,,,,,,,,
acc,1778675321.0,66.0,0.11644726284021788,0.37665560123760145,-9.804703608986374,,,,,,,,,,
acc,1778675321.0,66.0,0.11645409964627208,0.3764600545693988,-9.804270811965223,,,,,,,,,,
acc,1778675321.0,66.0,0.11646087144260898,0.37626636731237706,-9.804238611005294,,,,,,,,,,
acc,1778675321.0,66.0,0.11646757889917533,0.37607452030468613,-9.804206715991125,,,,,,,,,,
acc,1778675321.0,66.0,0.11647422267763095,0.3758844946214984,-9.804175123776417,,,,,,,,,,
acc,1778675321.0,66.0,0.11612065751511856,0.3756962715710784,-9.804143831253628,,,,,,,,,,
acc,1778675321.0,66.0,0.11613049542810187,0.37550983269093946,-9.804112835353324,,,,,,,,,,
acc,1778675321.0,66.0,0.11578028109591446,0.3756851095905439,-9.804046139901885,,,,,,,,,,
acc,1778675321.0,66.0,0.11543338152088115,0.3754988685209865,-9.804016059774705,,,,,,,,,,
acc,1778675321.0,66.0,0.11508976295279216,0.3753143889359812,-9.803986264148035,,,,,,,,,,
acc,1778675321.0,66.0,0.11510908348358732,0.3751316529345414,-9.804280475184537,,,,,,,,,,
acc,1778675321.0,66.0,0.11512822153660666,0.37495064283077284,-9.80457190746842,,,,,,,,,,
acc,1778675321.0,66.0,0.11514717895938649,0.37477134115044547,-9.804860589133774,,,,,,,,,,
acc,1778675321.0,66.0,0.11516595757743862,0.37459373062763973,-9.805146547979303,,,,,,,,,,
acc,1778675321.0,66.0,0.11518455919459744,0.37477714193885603,-9.8050704545368,,,,,,,,,,
acc,1778675321.0,66.0,0.11520298559335956,0.37495882560265253,-9.804995077858376,,,,,,,,,,
acc,1778675321.0,66.0,0.11522123853521633,0.375138798987274,-9.805315526590382,,,,,,,,,,
acc,1778675321.0,66.0,0.11523931976097936,0.3756762010593907,-9.805237929449309,,,,,,,,,,
acc,1778675321.0,66.0,0.11525723099109918,0.375849504321735,-9.80555601000494,,,,,,,,,,
acc,1778675321.0,66.0,0.11527497392597734,0.37602117921382094,-9.805476235265195,,,,,,,,,,
acc,1778675321.0,66.0,0.11529255024627198,0.37619124199715265,-9.805791996168296,,,,,,,,,,
acc,1778675321.0,66.0,0.11530996161319716,0.37635970874509916,-9.806104793662444,,,,,,,,,,
acc,1778675321.0,66.0,0.11532720966881599,0.3765265953457314,-9.80641465724752,,,,,,,,,,
acc,1778675321.0,66.0,0.1153442960363278,0.37669191750460057,-9.806721616084513,,,,,,,,,,
acc,1778675321.0,66.0,0.11536122232034954,0.37685569074746045,-9.807025699000576,,,,,,,,,,
acc,1778675321.0,66.0,0.11537799010719137,0.3773764853060487,-9.80693252687622,,,,,,,,,,
acc,1778675321.0,66.0,0.11539460096512685,0.37753391605140857,-9.806840226745273,,,,,,,,,,
acc,1778675321.0,66.0,0.11505263069310273,0.37768987418541045,-9.806748789992191,,,,,,,,,,
acc,1778675321.0,66.0,0.11507222051577189,0.37748602046163554,-9.806694041641498,,,,,,,,,,
acc,1778675321.0,66.0,0.11509162728246752,0.3772840716372816,-9.806639804883625,,,,,,,,,,
acc,1778675321.0,66.0,0.11546908438811149,0.37708400897066124,-9.806586074685177,,,,,,,,,,
acc,1778675321.0,66.0,0.11584301785489878,0.3768858139297269,-9.80653284606906,,,,,,,,,,
acc,1778675321.0,66.0,0.11621346225726738,0.3766894681890738,-9.806802427564541,,,,,,,,,,
acc,1778675321.0,66.0,0.1165804517853288,0.3764949536270007,-9.807069494863082,,,,,,,,,,
acc,1778675321.0,66.0,0.11658601991962196,0.37630225232262754,-9.807011861274416,,,,,,,,,,
acc,1778675321.0,66.0,0.11659153617165617,0.37611134655306827,-9.806954764698798,,,,,,,,,,
acc,1778675321.0,66.0,0.11659700104789607,0.3759222187906575,-9.80689819989401,,,,,,,,,,
acc,1778675321.0,66.0,0.11660241504924397,0.37573485170022997,-9.806842161675407,,,,,,,,,,
acc,1778675321.0,66.0,0.11660777867111698,0.3755492281364512,-9.806393073550344,,,,,,,,,,
acc,1778675321.0,66.0,0.1166130924035227,0.37572306534519995,-9.806305905958691,,,,,,,,,,
acc,1778675321.0,66.0,0.11661835673113351,0.37553760243588863,-9.80625531536785,,,,,,,,,,
acc,1778675321.0,66.0,0.1166235721333594,0.37535386317390645,-9.806205194953696,,,,,,,,,,
acc,1778675321.0,66.0,0.11698632497668435,0.37517183085245326,-9.805762188354008,,,,,,,,,,
acc,1778675321.0,66.0,0.11698817092758536,0.374991488945128,-9.805323295664468,,,,,,,,,,
acc,1778675321.0,66.0,0.11698999974301781,0.3751703125713803,-9.805245977718174,,,,,,,,,,
acc,1778675321.0,66.0,0.11663435689578228,0.37534747685922487,-9.805169377219794,,,,,,,,,,
acc,1778675321.0,66.0,0.11628201288906433,0.3751655973694431,-9.804736077643215,,,,,,,,,,
acc,1778675321.0,66.0,0.1159329359204251,0.3749854043202067,-9.804306795748756,,,,,,,,,,
acc,1778675321.0,66.0,0.11594441639668945,0.3751641941931114,-9.804631866027275,,,,,,,,,,
acc,1778675321.0,66.0,0.11559851129995626,0.3749840574088446,-9.804918199142165,,,,,,,,,,
acc,1778675321.0,66.0,0.11561304742515506,0.37480558912671774,-9.805201880120142,,,,,,,,,,
acc,1778675321.0,66.0,0.11562744895683172,0.3746287733258646,-9.805161455128237,,,,,,,,,,
acc,1778675321.0,66.0,0.11564171718610576,0.3744535941544758,-9.805121404315182,,,,,,,,,,
acc,1778675321.0,66.0,0.11529873724882489,0.37463714292724026,-9.805046015223413,,,,,,,,,,
acc,1778675321.0,66.0,0.11531600711243259,0.3748189938625133,-9.805364105679883,,,,,,,,,,
acc,1778675321.0,66.0,0.11497607828245363,0.37499916320190757,-9.805286514563498,,,,,,,,,,
acc,1778675321.0,66.0,0.11499629330216156,0.3751776670172431,-9.805602339596371,,,,,,,,,,
acc,1778675321.0,66.0,0.11465935687274932,0.37535452121270074,-9.805201325842036,,,,,,,,,,
acc,1778675321.0,66.0,0.11432553325670702,0.37552974152693896,-9.805874784004509,,,,,,,,,,
acc,1778675321.0,66.0,0.11470856955039137,0.37534645971848835,-9.805828245448446,,,,,,,,,,
acc,1778675321.0,66.0,0.11473122026352985,0.37516487017719824,-9.806103311608549,,,,,,,,,,
acc,1778675321.0,66.0,0.1147536618992738,0.374984956798064,-9.80637583877062,,,,,,,,,,
acc,1778675321.0,66.0,0.11513267755795811,0.3748067036422622,-9.806324737116862,,,,,,,,,,
acc,1778675321.0,66.0,0.1155081966626538,0.37498684304991575,-9.806630864141686,,,,,,,,,,
acc,1778675321.0,66.0,0.11588025241005911,0.37516532105839423,-9.806541773207377,,,,,,,,,,
acc,1778675321.0,66.0,0.11589219374747868,0.37534215342908983,-9.806453503726694,,,,,,,,,,
acc,1778675321.0,66.0,0.11590402500985772,0.3755173557620697,-9.806758373163468,,,,,,,,,,
acc,1778675321.0,66.0,0.11591574723989366,0.3753343214818933,-9.806703801895514,,,,,,,,,,
acc,1778675321.0,66.0,0.11557076042990605,0.37515297354918603,-9.80697067708278,,,,,,,,,,
acc,1778675321.0,66.0,0.11594208512829463,0.3749732960129665,-9.807591656434429,,,,,,,,,,
acc,1778675321.0,66.0,0.11595345705446972,0.3747952730842787,-9.80785038400377,,,,,,,,,,
acc,1778675321.0,66.0,0.11632122912237668,0.3746188891342523,-9.808106729582382,,,,,,,,,,
acc,1778675321.0,66.0,0.11632913920794821,0.3744441286921932,-9.808039875527445,,,,,,,,,,
acc,1778675321.0,66.0,0.11633697650274055,0.37462742583807745,-9.807937993567483,,,,,,,,,,
acc,1778675321.0,66.0,0.1163447416929302,0.3744526141896963,-9.807872689358591,,,,,,,,,,
acc,1778675321.0,66.0,0.11599603038709279,0.37463580643079697,-9.807772348057275,,,,,,,,,,
acc,1778675321.0,66.0,0.11565052587716917,0.37517369308365267,-9.807672929508017,,,,,,,,,,
acc,1778675321.0,66.0,0.11566455153713615,0.3749939363509436,-9.807610057646722,,,,,,,,,,
acc,1778675321.0,66.0,0.11532211978701751,0.374815831982302,-9.807155805122804,,,,,,,,,,
acc,1778675321.0,66.0,0.11498283509468095,0.37499565920423605,-9.807062031200978,,,,,,,,,,
acc,1778675321.0,66.0,0.11500294761863883,0.37481756349805323,-9.80700474415174,,,,,,,,,,
acc,1778675321.0,66.0,0.11502287537649449,0.3746411038893349,-9.806947983376817,,,,,,,,,,
acc,1778675321.0,66.0,0.11468638740021814,0.3748224886119601,-9.806856123405018,,,,,,,,,,
acc,1778675321.0,66.0,0.11435298940998688,0.3750022076695357,-9.806444524521657,,,,,,,,,,
acc,1778675321.0,66.0,0.11402265245147276,0.3751802766699677,-9.806749070297593,,,,,,,,,,
acc,1778675321.0,66.0,0.11405151319094135,0.37500055485053274,-9.80630287599679,,,,,,,,,,
acc,1778675321.0,66.0,0.11372396536029575,0.37517861707734146,-9.80621692052669,,,,,,,,,,
acc,1778675321.0,66.0,0.11375554563964448,0.3749989320343501,-9.806167363317654,,,,,,,,,,
acc,1778675321.0,66.0,0.11378683618008593,0.374820895543844,-9.806118260780073,,,,,,,,,,
acc,1778675321.0,66.0,0.11381783968946238,0.3746444921987794,-9.806069608664679,,,,,,,,,,
acc,1778675321.0,66.0,0.11420461069762276,0.37446970674370433,-9.80634186036585,,,,,,,,,,
acc,1778675321.0,66.0,0.1142318029138866,0.3742965240730657,-9.806291175690685,,,,,,,,,,
acc,1778675321.0,66.0,0.11390272399877253,0.37412492922953927,-9.80624095571849,,,,,,,,,,
acc,1778675321.0,66.0,0.11393266454054694,0.3739549074023842,-9.806191196114666,,,,,,,,,,
acc,1778675321.0,66.0,0.11360634657709326,0.37414241889520117,-9.806106296912713,,,,,,,,,,
acc,1778675321.0,66.0,0.11363898477336329,0.3739722553871866,-9.806057769580415,,,,,,,,,,
acc,1778675321.0,66.0,0.11331537621059294,0.37380365104946917,-9.806330042559159,,,,,,,,,,
acc,1778675321.0,66.0,0.11335066236395275,0.3736365913648957,-9.806279481395103,,,,,,,,,,
acc,1778675321.0,66.0,0.11374152881318711,0.373471061957701,-9.80622938337454,,,,,,,,,,
acc,1778675321.0,66.0,0.11412881541668901,0.3733070485919653,-9.806500052935368,,,,,,,,,,
acc,1778675321.0,66.0,0.11415668575429029,0.3735004068790729,-9.806803829002599,,,,,,,,,,
acc,1778675321.0,66.0,0.11418430090619101,0.3736919947437816,-9.807104823642865,,,,,,,,,,
acc,1778675321.0,66.0,0.11421166324342111,0.37388182863577685,-9.807403062699489,,,,,,,,,,
acc,1778675321.0,66.0,0.11388294474638745,0.37406992484545,-9.807698571765535,,,,,,,,,,
acc,1778675321.0,66.0,0.11391304964288286,0.3742562995056131,-9.807599982639875,,,,,,,,,,
acc,1778675321.0,66.0,0.11394287904009041,0.37444096859319087,-9.807893672466138,,,,,,,,,,
acc,1778675321.0,66.0,0.11397243549383468,0.3746239479308895,-9.808184674986393,,,,,,,,,,
acc,1778675321.0,66.0,0.11400172153529557,0.37444949252867016,-9.808437440877254,,,,,,,,,,
acc,1778675321.0,66.0,0.11403073967127095,0.37427663302527847,-9.808367711992938,,,,,,,,,,
acc,1778675321.0,66.0,0.11441522436871995,0.37410535463155126,-9.80829862090412,,,,,,,,,,
acc,1778675321.0,66.0,0.1140847475036021,0.37393564270050106,-9.808230161702427,,,,,,,,,,
acc,1778675321.0,66.0,0.1137572927340437,0.3741231870645933,-9.808126759923585,,,,,,,,,,
acc,1778675321.0,66.0,0.11378853207978698,0.37466471659273426,-9.807704179987427,,,,,,,,,,
acc,1778675321.0,66.0,0.1138194858170613,0.37484560834745545,-9.807996828004136,,,,,,,,,,
acc,1778675321.0,66.0,0.11385015658812934,0.37434907256749334,-9.80793112692741,,,,,,,,,,
acc,1778675322.0,67.0,0.11423619900184714,0.37385707542208974,-9.807866026397896,,,,,,,,,,
acc,1778675322.0,67.0,0.11426307363729296,0.3740453009110754,-9.808157169460518,,,,,,,,,,
acc,1778675322.0,67.0,0.11428970267399881,0.37423180626722363,-9.808054454633739,,,,,,,,,,
acc,1778675322.0,67.0,0.11431608838125262,0.3740609922140947,-9.807988238085503,,,,,,,,,,
acc,1778675321.0,66.0,0.11398662056467769,0.37389173886045063,-9.808242680475706,,,,,,,,,,
acc,1778675321.0,66.0,0.11401576356871371,0.3740796235154384,-9.80813919747262,,,,,,,,,,
acc,1778675321.0,66.0,0.11404464034993092,0.37426579183458103,-9.808036659792013,,,,,,,,,,
acc,1778675321.0,66.0,0.11407325336532612,0.37445025965811224,-9.807615044685809,,,,,,,,,,
acc,1778675321.0,66.0,0.11374603782864863,0.3742774845582284,-9.807552838447947,,,,,,,,,,
acc,1778675321.0,66.0,0.11342181058665084,0.37410628732630585,-9.807811203818657,,,,,,,,,,
acc,1778675321.0,66.0,0.11345608990215476,0.373936653411949,-9.808067209880646,,,,,,,,,,
acc,1778675321.0,66.0,0.11349005621770157,0.3737685684027304,-9.808320878384686,,,,,,,,,,
acc,1778675321.0,66.0,0.11352371241813312,0.37360201802278104,-9.808252255476095,,,,,,,,,,
acc,1778675321.0,66.0,0.11355706136097724,0.37343698813139764,-9.8081842590467,,,,,,,,,,
acc,1778675321.0,66.0,0.11359010587672572,0.37362896091769027,-9.808081335525863,,,,,,,,,,
acc,1778675321.0,66.0,0.11326735314824098,0.37381918141690884,-9.808370393921983,,,,,,,,,,
acc,1778675321.0,66.0,0.11330303232132088,0.3740076657634891,-9.80865681406671,,,,,,,,,,
acc,1778675321.0,66.0,0.1129829090827884,0.3741944299395313,-9.808549598505579,,,,,,,,,,
acc,1778675321.0,66.0,0.11302117479999581,0.37402403124405464,-9.808798828985248,,,,,,,,,,
acc,1778675321.0,66.0,0.1127036327068374,0.37421063696288825,-9.808690326616832,,,,,,,,,,
acc,1778675321.0,66.0,0.11274443775235038,0.3740400993375639,-9.808938264058133,,,,,,,,,,
acc,1778675321.0,66.0,0.11278487051016617,0.37422654966226676,-9.809219480808752,,,,,,,,,,
acc,1778675321.0,66.0,0.11282493440353338,0.3744112990172628,-9.809498132044,,,,,,,,,,
acc,1778675321.0,66.0,0.11286463282350395,0.3742389478744781,-9.809738701652428,,,,,,,,,,
acc,1778675321.0,66.0,0.11290396912925534,0.37406816885470345,-9.809657199694199,,,,,,,,,,
acc,1778675321.0,66.0,0.11258753865144748,0.37425434640966615,-9.809931849112608,,,,,,,,,,
acc,1778675321.0,66.0,0.11262939422700895,0.374438825952517,-9.809813056258323,,,,,,,,,,
acc,1778675321.0,66.0,0.11267086808853774,0.3742662398650248,-9.809730883271836,,,,,,,,,,
acc,1778675321.0,66.0,0.11271196374168946,0.37409522762432784,-9.809649459637129,,,,,,,,,,
acc,1778675321.0,66.0,0.11275268465926254,0.37392577477899414,-9.80988862067682,,,,,,,,,,
acc,1778675321.0,66.0,0.1131483950222355,0.3737578670129655,-9.809805765451028,,,,,,,,,,
acc,1778675321.0,66.0,0.1131851439814084,0.3735914901442178,-9.809332769508522,,,,,,,,,,
acc,1778675321.0,66.0,0.11286620237794275,0.37342663012343597,-9.809254974189685,,,,,,,,,,
acc,1778675321.0,66.0,0.11255016837401395,0.37361861249756123,-9.809142355957041,,,,,,,,,,
acc,1778675321.0,66.0,0.11223701529543641,0.3738088447850448,-9.809030764337729,,,,,,,,,,
acc,1778675321.0,66.0,0.11192671671724888,0.3736420171229529,-9.808955720687502,,,,,,,,,,
acc,1778675321.0,66.0,0.1119745748817109,0.37347671006847577,-9.808881361048215,,,,,,,,,,
acc,1778675321.0,66.0,0.1120219968506034,0.3733129096786521,-9.808807679147941,,,,,,,,,,
acc,1778675321.0,66.0,0.11242429312049008,0.373150602140605,-9.808343824349155,,,,,,,,,,
acc,1778675321.0,66.0,0.11282292311794377,0.3729897737702683,-9.80827503438852,,,,,,,,,,
acc,1778675321.0,66.0,0.11353768698157089,0.3728304110111266,-9.8081713437092,,,,,,,,,,
acc,1778675321.0,66.0,0.11392617649079599,0.37267250043296946,-9.808423895114473,,,,,,,,,,
acc,1778675321.0,66.0,0.11431112609675266,0.3728713109396172,-9.808318853975583,,,,,,,,,,
acc,1778675321.0,66.0,0.11469256822785874,0.37306830998096835,-9.80821476992081,,,,,,,,,,
acc,1778675321.0,66.0,0.11507053501079287,0.37290824343470436,-9.80814715943618,,,,,,,,,,
acc,1778675321.0,66.0,0.11508979315065652,0.37310490032031746,-9.80804464023322,,,,,,,,,,
acc,1778675321.0,66.0,0.11546413547705389,0.37294450598658185,-9.807978579146768,,,,,,,,,,
acc,1778675321.0,66.0,0.1158350676198147,0.3727855728131098,-9.808232859594387,,,,,,,,,,
acc,1778675321.0,66.0,0.11620262079712847,0.37262808742385395,-9.808484823702312,,,,,,,,,,
acc,1778675321.0,66.0,0.11621158218680845,0.3724720365669758,-9.808414762383764,,,,,,,,,,
acc,1778675321.0,66.0,0.11622046195084831,0.3723174071136453,-9.808665064920591,,,,,,,,,,
acc,1778675321.0,66.0,0.1162292608361897,0.3721641860568528,-9.80859336646561,,,,,,,,,,
acc,1778675321.0,66.0,0.11588274177313397,0.3723675892259745,-9.808877558837136,,,,,,,,,,
acc,1778675321.0,66.0,0.11553937861447414,0.37256913991128215,-9.808768409393318,,,,,,,,,,
acc,1778675321.0,66.0,0.11519914249179154,0.3727688550582442,-9.80866025398229,,,,,,,,,,
acc,1778675321.0,66.0,0.11486200480414606,0.3729667514553219,-9.808553083512283,,,,,,,,,,
acc,1778675321.0,66.0,0.11488315621837837,0.3728076358260956,-9.808482408147988,,,,,,,,,,
acc,1778675321.0,66.0,0.11490411502746055,0.37300517452523607,-9.808376857631613,,,,,,,,,,
acc,1778675321.0,66.0,0.11492488299241811,0.3728457134917739,-9.80830778650631,,,,,,,,,,
acc,1778675321.0,66.0,0.11459025608522486,0.37268770440532833,-9.808239344297126,,,,,,,,,,
acc,1778675321.0,66.0,0.11461387748119528,0.37253113399338644,-9.808491209352217,,,,,,,,,,
acc,1778675321.0,66.0,0.1142820864646796,0.37273117736028105,-9.80838558390756,,,,,,,,,,
acc,1778675321.0,66.0,0.11395331619643245,0.37292939945829223,-9.80796125255762,,,,,,,,,,
acc,1778675321.0,66.0,0.11398272829557803,0.37277063679981465,-9.807895964476021,,,,,,,,,,
acc,1778675321.0,66.0,0.11365668736236006,0.3726133194772584,-9.808150940233443,,,,,,,,,,
acc,1778675321.0,66.0,0.11333361452703355,0.3724574342853514,-9.808083928851092,,,,,,,,,,
acc,1778675321.0,66.0,0.1133686602560174,0.37230296814074804,-9.80833719003512,,,,,,,,,,
acc,1778675321.0,66.0,0.11340338696840178,0.3718302488965242,-9.808268486632002,,,,,,,,,,
acc,1778675321.0,66.0,0.11343779757803513,0.3716814884964009,-9.808200408607254,,,,,,,,,,
acc,1778675321.0,66.0,0.11347189497188435,0.3715340821584656,-9.808132950249293,,,,,,,,,,
acc,1778675321.0,66.0,0.11350568201029008,0.3713880175171886,-9.808066105899215,,,,,,,,,,
acc,1778675321.0,66.0,0.11353916152721918,0.37124328232105647,-9.807999869950292,,,,,,,,,,
acc,1778675321.0,66.0,0.11321718020321503,0.3714550114669107,-9.807898723962317,,,,,,,,,,
acc,1778675321.0,66.0,0.11325328208142414,0.3716648136161422,-9.807478867394773,,,,,,,,,,
acc,1778675321.0,66.0,0.11293390591448337,0.3718727063603106,-9.807382460103478,,,,,,,,,,
acc,1778675321.0,66.0,0.11297258255383502,0.3720787071289372,-9.807286930188823,,,,,,,,,,
acc,1778675321.0,66.0,0.11301090721708125,0.3719276992061242,-9.80722778122273,,,,,,,,,,
acc,1778675321.0,66.0,0.11269374315658685,0.3717780654919086,-9.807169170526526,,,,,,,,,,
acc,1778675321.0,66.0,0.1123794652905075,0.3716297934451834,-9.807430719125374,,,,,,,,,,
acc,1778675321.0,66.0,0.11242318117670663,0.37183799544434887,-9.807334753796244,,,,,,,,,,
acc,1778675321.0,66.0,0.11211136832313878,0.3720443029004227,-9.807239661707774,,,,,,,,,,
acc,1778675321.0,66.0,0.1118023927541241,0.37224873309918777,-9.80714543489253,,,,,,,,,,
acc,1778675321.0,66.0,0.11114110338028958,0.3724513031674614,-9.807052065456348,,,,,,,,,,
acc,1778675321.0,66.0,0.11048583100042361,0.37265203007459063,-9.806959545577648,,,,,,,,,,
acc,1778675321.0,66.0,0.10983652072737095,0.372495820056263,-9.806903376746323,,,,,,,,,,
acc,1778675321.0,66.0,0.10919311817841827,0.37269613919366906,-9.806812209994586,,,,,,,,,,
acc,1778675321.0,66.0,0.10820046422949775,0.3725395305352254,-9.806757381407238,,,,,,,,,,
acc,1778675321.0,66.0,0.10689724730200036,0.37206474342157336,-9.80702265494275,,,,,,,,,,
acc,1778675321.0,66.0,0.10592547876056513,0.3719138768484309,-9.806575296684388,,,,,,,,,,
acc,1778675321.0,66.0,0.1049625510421791,0.37211948040149134,-9.806487115024382,,,,,,,,,,
acc,1778675321.0,66.0,0.10368879609280228,0.37196811834655175,-9.806044631368843,,,,,,,,,,
acc,1778675321.0,66.0,0.10242662885639876,0.37181813327550417,-9.805606173113638,,,,,,,,,,
acc,1778675321.0,66.0,0.10082084424150686,0.37202460298654316,-9.805562310218189,,,,,,,,,,
acc,1778675321.0,66.0,0.09958476444034643,0.37222919445871927,-9.804844168182383,,,,,,,,,,
acc,1778675321.0,66.0,0.09835992894194377,0.37207683907303896,-9.8044166311308,,,,,,,,,,
acc,1778675321.0,66.0,0.09746581221329875,0.3719258695989698,-9.803992983200443,,,,,,,,,,
acc,1778675321.0,66.0,0.09657982872851818,0.3717762734037012,-9.803573188941334,,,,,,,,,,
acc,1778675321.0,66.0,0.09605698348881445,0.3716280379702686,-9.803157213228584,,,,,,,,,,
acc,1778675321.0,66.0,0.09553889408515459,0.37148115089647243,-9.802496470988837,,,,,,,,,,
acc,1778675321.0,66.0,0.09538060118866715,0.3716906748180235,-9.801806224034463,,,,,,,,,,
acc,1778675321.0,66.0,0.09486866611770765,0.37154322008594964,-9.801406317329972,,,,,,,,,,
acc,1778675321.0,66.0,0.0943613873994609,0.3713971065420082,-9.800406422086917,,,,,,,,,,
acc,1778675321.0,66.0,0.09385872260404451,0.3712523219649482,-9.799770699312788,,,,,,,,,,
acc,1778675321.0,66.0,0.09371570573435935,0.3711088542454855,-9.798785682577073,,,,,,,,,,
acc,1778675321.0,66.0,0.09392906376420164,0.3709666913852609,-9.797809624708146,,,,,,,,,,
acc,1778675321.0,66.0,0.09449554448574349,0.37082582149580773,-9.7968424440825,,,,,,,,,,
acc,1778675321.0,66.0,0.09537643017803354,0.37068623279753027,-9.795848555507309,,,,,,,,,,
acc,1778675321.0,66.0,0.09660437310126986,0.3705479136186917,-9.794863706065527,,,,,,,,,,
acc,1778675321.0,66.0,0.09782114840183041,0.37041085239441185,-9.793568259596947,,,,,,,,,,
acc,1778675321.0,66.0,0.0986717926792743,0.37027503766567466,-9.792284594492918,,,,,,,,,,
acc,1778675321.0,66.0,0.09986976435629445,0.3704955124121894,-9.791367657772657,,,,,,,,,,
acc,1778675321.0,66.0,0.1014118941206164,0.37071398212136325,-9.790104007182215,,,,,,,,,,
acc,1778675321.0,66.0,0.10329505977762701,0.37093046505521066,-9.789171396029447,,,,,,,,,,
acc,1778675321.0,66.0,0.10583569573775416,0.3711449793086626,-9.787927719698393,,,,,,,,,,
acc,1778675321.0,66.0,0.10870828455110383,0.3710024949967651,-9.787014897969371,,,,,,,,,,
acc,1778675321.0,66.0,0.11155475094570846,0.3712163526499036,-9.786145879961806,,,,,,,,,,
acc,1778675321.0,66.0,0.1147303866259835,0.37107322084527283,-9.785639818245762,,,,,,,,,,
acc,1778675321.0,66.0,0.11752209250309541,0.37093139060262925,-9.785422396594937,,,,,,,,,,
acc,1778675321.0,66.0,0.12028841245972142,0.3711458918241929,-9.785171440585549,,,,,,,,,,
acc,1778675321.0,66.0,0.12267452825269917,0.37135844253806055,-9.784638730694185,,,,,,,,,,
acc,1778675321.0,66.0,0.12503894682259148,0.37192410847915786,-9.784749947514195,,,,,,,,,,
acc,1778675321.0,66.0,0.12738186572037788,0.3721295842366566,-9.784860153038998,,,,,,,,,,
acc,1778675321.0,66.0,0.12970348069145143,0.3723331916236867,-9.78496935647601,,,,,,,,,,
acc,1778675321.0,66.0,0.13200398569230795,0.3725349476503794,-9.785823147248367,,,,,,,,,,
acc,1778675321.0,66.0,0.13428357290707574,0.37273486917142795,-9.787024217306868,,,,,,,,,,
acc,1778675321.0,66.0,0.1362229020041475,0.3729329728875235,-9.788178856037659,,,,,,,,,,
acc,1778675321.0,66.0,0.13778956687889007,0.3731292753467772,-9.789003466609177,,,,,,,,,,
acc,1778675322.0,67.0,0.1389869482918892,0.3736788316687835,-9.790175618216619,,,,,,,,,,
acc,1778675322.0,67.0,0.13946337685083773,0.3742233912587996,-9.791301602156105,,,,,,,,,,
acc,1778675322.0,67.0,0.1396159473239311,0.3744079633103378,-9.792807885606317,,,,,,,,,,
acc,1778675322.0,67.0,0.13976713060847407,0.374590857211239,-9.794300473751576,,,,,,,,,,
acc,1778675322.0,67.0,0.1395619144763767,0.37477208823591995,-9.79613452518859,,,,,,,,,,
acc,1778675322.0,67.0,0.13935856415666875,0.3749516715193257,-9.797951901543295,,,,,,,,,,
acc,1778675322.0,67.0,0.13844699930611476,0.3751296220582151,-9.800107777174516,,,,,,,,,,
acc,1778675322.0,67.0,0.13718870069817257,0.3749509332206735,-9.802208551757394,,,,,,,,,,
acc,1778675322.0,67.0,0.13629686255271095,0.3747738689652781,-9.80393520635386,,,,,,,,,,
acc,1778675322.0,67.0,0.13473859405969119,0.3745984145072855,-9.806001182247538,,,,,,,,,,
acc,1778675322.0,67.0,0.13283946519769863,0.37477957350547214,-9.808048375281361,,,,,,,,,,
acc,1778675322.0,67.0,0.1306025848663111,0.3746040682217993,-9.810467482667445,,,,,,,,,,
acc,1778675322.0,67.0,0.12803101545451753,0.3744301585202385,-9.812474071891694,,,,,,,,,,
acc,1778675322.0,67.0,0.1251278096201909,0.3742578298814825,-9.814497918351577,,,,,,,,,,
acc,1778675322.0,67.0,0.12225099744203696,0.37408706791870455,-9.816503365596711,,,,,,,,,,
acc,1778675322.0,67.0,0.1194003387577711,0.3739178583763397,-9.818490581046015,,,,,,,,,,
acc,1778675322.0,67.0,0.1165755955961298,0.37375018712887753,-9.820779243606722,,,,,,,,,,
acc,1778675322.0,67.0,0.11345701996611993,0.37326451890064827,-9.822337076899602,,,,,,,,,,
acc,1778675322.0,67.0,0.1103667950699029,0.37278326584533245,-9.824235758673847,,,,,,,,,,
acc,1778675322.0,67.0,0.10694964413162887,0.3726259074652968,-9.825797669221625,,,,,,,,,,
acc,1778675322.0,67.0,0.10391857575054504,0.3724699795969591,-9.826954863739902,,,,,,,,,,
acc,1778675322.0,67.0,0.10091506196982569,0.3723154692255425,-9.828101538524377,,,,,,,,,,
acc,1778675322.0,67.0,0.09793885210348054,0.37216236345495646,-9.828882773008468,,,,,,,,,,
acc,1778675322.0,67.0,0.09498969775146915,0.37201064950670715,-9.829656905607365,,,,,,,,,,
acc,1778675322.0,67.0,0.09238685959699725,0.37186031471881753,-9.830104494111538,,,,,,,,,,
acc,1778675322.0,67.0,0.08980768246383389,0.3717113465447581,-9.830548013825988,,,,,,,,,,
acc,1778675322.0,67.0,0.08760695509298842,0.3715637325523873,-9.830952003183675,,,,,,,,,,
acc,1778675322.0,67.0,0.08578124541537564,0.37109794661677953,-9.830677803107966,,,,,,,,,,
acc,1778675322.0,67.0,0.08432713444459551,0.3709559079425375,-9.830370597161407,,,,,,,,,,
acc,1778675322.0,67.0,0.08288624168427226,0.37081516043322504,-9.8300661837891,,,,,,,,,,
acc,1778675322.0,67.0,0.08181345699838254,0.3710306933571787,-9.829445034859306,,,,,,,,,,
acc,1778675322.0,67.0,0.08075042405826188,0.37124426706013774,-9.828829532250277,,,,,,,,,,
acc,1778675322.0,67.0,0.08037155523121856,0.37145589936320267,-9.827900114051735,,,,,,,,,,
acc,1778675322.0,67.0,0.08035113833795815,0.37131060900339863,-9.82701465144294,,,,,,,,,,
acc,1778675322.0,67.0,0.08033090703353853,0.371166639327849,-9.82613723765808,,,,,,,,,,
acc,1778675322.0,67.0,0.08102086389719462,0.37102397832421674,-9.825516294166249,,,,,,,,,,
acc,1778675322.0,67.0,0.08170454914719648,0.3708826140896224,-9.824652500742046,,,,,,,,,,
acc,1778675322.0,67.0,0.08270151831775881,0.3707425348296415,-9.823761052138543,,,,,,,,,,
acc,1778675322.0,67.0,0.08404443004071928,0.37060372885731074,-9.822877706593966,,,,,,,,,,
acc,1778675322.0,67.0,0.08537513507463458,0.37046618459214425,-9.821647395344327,,,,,,,,,,
acc,1778675322.0,67.0,0.08669374443699135,0.3703298905591583,-9.820783261684443,,,,,,,,,,
acc,1778675322.0,67.0,0.08835536200716146,0.37054982926115143,-9.819926982676009,,,,,,,,,,
acc,1778675322.0,67.0,0.09000187617049885,0.37076776881258544,-9.819078486884639,,,,,,,,,,
acc,1778675322.0,67.0,0.09163342428340751,0.3709837273945326,-9.817882710804431,,,,,,,,,,
acc,1778675322.0,67.0,0.09360514370134997,0.3711977230224592,-9.817052795884825,,,,,,,,,,
acc,1778675322.0,67.0,0.09555894127344805,0.37105478193526725,-9.816265930867283,,,,,,,,,,
acc,1778675322.0,67.0,0.09749497998117915,0.3709131400980161,-9.815486217987363,,,,,,,,,,
acc,1778675322.0,67.0,0.09941342132165693,0.37112777623799226,-9.814997588273496,,,,,,,,,,
acc,1778675322.0,67.0,0.10095942621133208,0.3709854714578611,-9.814229404222186,,,,,,,,,,
acc,1778675322.0,67.0,0.10249137901805759,0.370844460126792,-9.813468202416587,,,,,,,,,,
acc,1778675322.0,67.0,0.10365441851574493,0.3710597194918647,-9.812962408034686,,,,,,,,,,
acc,1778675322.0,67.0,0.10480688690269294,0.37127302231927006,-9.812212722598051,,,,,,,,,,
acc,1778675322.0,67.0,0.1059488803051686,0.37112939836789494,-9.811753845243118,,,,,,,,,,
acc,1778675322.0,67.0,0.10708049397416664,0.37098707983416324,-9.8109796389799,,,,,,,,,,
acc,1778675322.0,67.0,0.10820182229341078,0.3708460548478108,-9.810851459041343,,,,,,,,,,
acc,1778675322.0,67.0,0.10895796306664528,0.37070631164664974,-9.810724444138511,,,,,,,,,,
acc,1778675322.0,67.0,0.1100622265248689,0.37056783857558057,-9.81059858367789,,,,,,,,,,
acc,1778675322.0,67.0,0.11048196952353546,0.3707856098270836,-9.810473867162415,,,,,,,,,,
acc,1778675322.0,67.0,0.11089789749413614,0.37100140176400825,-9.810740775299388,,,,,,,,,,
acc,1778675322.0,67.0,0.11095506024299889,0.37121523238339027,-9.810614766886887,,,,,,,,,,
acc,1778675322.0,67.0,0.11065670989388811,0.371427119518434,-9.810880393932315,,,,,,,,,,
acc,1778675322.0,67.0,0.11000607806954689,0.37163708084000874,-9.811143606729507,,,,,,,,,,
acc,1778675322.0,67.0,0.10936135972939812,0.37184513385813184,-9.811404427229462,,,,,,,,,,
acc,1778675322.0,67.0,0.10836751785245778,0.37205129592343755,-9.811662877183373,,,,,,,,,,
acc,1778675322.0,67.0,0.10738270877824228,0.3719006013627394,-9.811883481675395,,,,,,,,,,
acc,1778675322.0,67.0,0.1060873643271465,0.37175127642616407,-9.8121020811499,,,,,,,,,,
acc,1778675322.0,67.0,0.10480379289115146,0.3716033086612134,-9.812318693836326,,,,,,,,,,
acc,1778675322.0,67.0,0.1035318874320892,0.37145668572872337,-9.812533337798198,,,,,,,,,,
acc,1778675322.0,67.0,0.1019165514179288,0.3713113954018295,-9.813136508635537,,,,,,,,,,
acc,1778675322.0,67.0,0.1003158965949289,0.37116742556494153,-9.813734197476384,,,,,,,,,,
acc,1778675322.0,67.0,0.09872978948796565,0.3713797448900649,-9.813935977233163,,,,,,,,,,
acc,1778675322.0,67.0,0.09715809783658134,0.37159013453478623,-9.814135923099212,,,,,,,,,,
acc,1778675322.0,67.0,0.095600690583899,0.3714436320431296,-9.81436954792962,,,,,,,,,,
acc,1778675322.0,67.0,0.09405743786563905,0.371298461043,-9.814956029124716,,,,,,,,,,
acc,1778675322.0,67.0,0.09252821099923707,0.3711546094294607,-9.815537180085649,,,,,,,,,,
acc,1778675322.0,67.0,0.09136787058868441,0.37101206520772245,-9.81572257415724,,,,,,,,,,
acc,1778675322.0,67.0,0.09021807587493229,0.37087081649213866,-9.815906283283923,,,,,,,,,,
acc,1778675322.0,67.0,0.0890787309866177,0.3707308515052096,-9.81576883131011,,,,,,,,,,
acc,1778675322.0,67.0,0.08794974092468603,0.3709471366849635,-9.815597132562011,,,,,,,,,,
acc,1778675322.0,67.0,0.08715049340349466,0.3711614561826275,-9.815426994277528,,,,,,,,,,
acc,1778675322.0,67.0,0.08603902814231729,0.3713738278678894,-9.815648884815694,,,,,,,,,,
acc,1778675322.0,67.0,0.08525714558265955,0.3712292922101448,-9.815513772412784,,,,,,,,,,
acc,1778675322.0,67.0,0.08483734597562217,0.37108607013793,-9.815379887953899,,,,,,,,,,
acc,1778675322.0,67.0,0.084421361630548,0.37094414970991696,-9.815247220276246,,,,,,,,,,
acc,1778675322.0,67.0,0.08436414336549561,0.3708035190934143,-9.815115758318589,,,,,,,,,,
acc,1778675322.0,67.0,0.08466243035054846,0.3706641665633767,-9.814985491120316,,,,,,,,,,
acc,1778675322.0,67.0,0.08495800643436081,0.37052608050142344,-9.814856407820526,,,,,,,,,,
acc,1778675322.0,67.0,0.08525089626008155,0.370389249394866,-9.814728497657121,,,,,,,,,,
acc,1778675322.0,67.0,0.08589609962908265,0.3702536618357446,-9.81421126977528,,,,,,,,,,
acc,1778675322.0,67.0,0.08618046414179566,0.37047428165605645,-9.814053726773786,,,,,,,,,,
acc,1778675322.0,67.0,0.08681721920025647,0.3706928964493166,-9.813897615547457,,,,,,,,,,
acc,1778675322.0,67.0,0.08744818734197031,0.3709095244415432,-9.813423444072399,,,,,,,,,,
acc,1778675322.0,67.0,0.08839289996966984,0.37112418369296835,-9.813308556347707,,,,,,,,,,
acc,1778675322.0,67.0,0.08968401023662119,0.3709819179044741,-9.813159217132185,,,,,,,,,,
acc,1778675322.0,67.0,0.09060840372844059,0.3708409450392816,-9.813011235123856,,,,,,,,,,
acc,1778675322.0,67.0,0.09152439627124047,0.3707012533447855,-9.81286459798578,,,,,,,,,,
acc,1778675322.0,67.0,0.09243206422878227,0.37091780470827795,-9.812754789029034,,,,,,,,,,
acc,1778675322.0,67.0,0.09333148327027316,0.3707774147256565,-9.812291004699427,,,,,,,,,,
acc,1778675322.0,67.0,0.09422272837669447,0.3709932737208536,-9.812186408360793,,,,,,,,,,
acc,1778675322.0,67.0,0.09510587384707218,0.3712071709893773,-9.811692285126966,,,,,,,,,,
acc,1778675322.0,67.0,0.0959809933046899,0.37141912436273977,-9.81159312972288,,,,,,,,,,
acc,1778675322.0,67.0,0.09684815970324506,0.37127417900324605,-9.811459380006875,,,,,,,,,,
acc,1778675322.0,67.0,0.0973879684339094,0.3711305509005973,-9.811362341216018,,,,,,,,,,
acc,1778675322.0,67.0,0.09824234814274783,0.3709882280815006,-9.811230688913117,,,,,,,,,,
acc,1778675322.0,67.0,0.09908896331261506,0.37084719868155225,-9.811100233056509,,,,,,,,,,
acc,1778675322.0,67.0,0.09992788451912449,0.3707074509442461,-9.81065148637766,,,,,,,,,,
acc,1778675322.0,67.0,0.1004397054650701,0.37056897321999094,-9.810881274751399,,,,,,,,,,
acc,1778675322.0,67.0,0.10059190364864862,0.3707867253584652,-9.810753994354496,,,,,,,,,,
acc,1778675322.0,67.0,0.10074271867494607,0.37100249859384926,-9.81101834627639,,,,,,,,,,
acc,1778675322.0,67.0,0.10053718298014568,0.37086133986462233,-9.811244800518566,,,,,,,,,,
acc,1778675322.0,67.0,0.10033351516159002,0.3710764348444374,-9.811114216812047,,,,,,,,,,
acc,1778675322.0,67.0,0.09977671843851973,0.3712895750774676,-9.810984819828162,,,,,,,,,,
acc,1778675322.0,67.0,0.09922498178288298,0.37114580777675404,-9.811211578421952,,,,,,,,,,
acc,1778675322.0,67.0,0.09867825920291323,0.37100334700537263,-9.811436276277643,,,,,,,,,,
acc,1778675322.0,67.0,0.09813650512505404,0.370862180888116,-9.811658932125539,,,,,,,,,,
acc,1778675322.0,67.0,0.09724470430411525,0.3707222976577586,-9.811560080543375,,,,,,,,,,
acc,1778675322.0,67.0,0.09636100796422821,0.3705836856540734,-9.811462127301688,,,,,,,,,,
acc,1778675322.0,67.0,0.09548534244361617,0.3704463333228579,-9.811684547949433,,,,,,,,,,
acc,1778675322.0,67.0,0.09461763475028886,0.3706651988579459,-9.811940442441287,,,,,,,,,,
acc,1778675322.0,67.0,0.09343833818793587,0.370882075400695,-9.812194011431396,,,,,,,,,,
acc,1778675322.0,67.0,0.09226975874936476,0.37074201166809057,-9.812409780937442,,,,,,,,,,
acc,1778675322.0,67.0,0.09143127314650615,0.3706032207947908,-9.812623589591677,,,,,,,,,,
acc,1778675322.0,67.0,0.09060040745320348,0.37046569121196293,-9.812515972131338,,,,,,,,,,
acc,1778675322.0,67.0,0.08977709241344602,0.3703294114559609,-9.812728815631141,,,,,,,,,,
acc,1778675322.0,67.0,0.08896125940090888,0.3701943701673677,-9.812939724876397,,,,,,,,,,
acc,1778675322.0,67.0,0.08815284041322165,0.370060556090047,-9.813148717447087,,,,,,,,,,
acc,1778675322.0,67.0,0.08735176806628928,0.3702829266437528,-9.813391305803247,,,,,,,,,,
acc,1778675322.0,67.0,0.08655797558866488,0.3705032763705318,-9.813241217034639,,,,,,,,,,
acc,1778675323.0,68.0,0.08577139681597384,0.37072162363702565,-9.813482964652149,,,,,,,,,,
acc,1778675323.0,68.0,0.08499196618538893,0.3709379866428916,-9.813722515355144,,,,,,,,,,
acc,1778675323.0,68.0,0.08457458682479319,0.3711523834223225,-9.813569416936604,,,,,,,,,,
acc,1778675323.0,68.0,0.08416100044871679,0.3710098638652772,-9.8137726868857,,,,,,,,,,
acc,1778675323.0,68.0,0.08410614953963842,0.37086863947039583,-9.813974109596758,,,,,,,,,,
acc,1778675323.0,68.0,0.08405179709376583,0.3710836662242631,-9.81420919681679,,,,,,,,,,
acc,1778675323.0,68.0,0.08399793858080791,0.37094177125302175,-9.814087170923072,,,,,,,,,,
acc,1778675323.0,68.0,0.08394456951165953,0.37080116576437966,-9.813966253950023,,,,,,,,,,
acc,1778675323.0,68.0,0.08389168543802673,0.37066183803891656,-9.813846435819254,,,,,,,,,,
acc,1778675323.0,68.0,0.08419425837560021,0.3705237764637546,-9.813727706544002,,,,,,,,,,
acc,1778675323.0,68.0,0.08449408166312439,0.37038696953158884,-9.81361005622829,,,,,,,,,,
acc,1778675323.0,68.0,0.08514614742731033,0.37060637297652843,-9.813457980169881,,,,,,,,,,
acc,1778675323.0,68.0,0.08579228751393883,0.37082378258259296,-9.812987813956385,,,,,,,,,,
acc,1778675323.0,68.0,0.08643255577764816,0.3706842495259991,-9.81287688734095,,,,,,,,,,
acc,1778675323.0,68.0,0.08706700558349782,0.3709009513313558,-9.813121944712806,,,,,,,,,,
acc,1778675323.0,68.0,0.08769568981142269,0.3707607170947496,-9.813009799273539,,,,,,,,,,
acc,1778675323.0,68.0,0.08863813268008812,0.3706217572391731,-9.81286317810844,,,,,,,,,,
acc,1778675323.0,68.0,0.08889757276945456,0.3708390267630223,-9.812398417624955,,,,,,,,,,
acc,1778675323.0,68.0,0.08950962168943422,0.3710543218493039,-9.812257352315472,,,,,,,,,,
acc,1778675323.0,68.0,0.08976114220878423,0.3712676604421514,-9.812117568936554,,,,,,,,,,
acc,1778675323.0,68.0,0.0903653433619287,0.3714790603225792,-9.811979055837753,,,,,,,,,,
acc,1778675323.0,68.0,0.09096405384673495,0.37168853910996685,-9.811841801474529,,,,,,,,,,
acc,1778675323.0,68.0,0.09155732356331522,0.3718961142635292,-9.81170579440728,,,,,,,,,,
acc,1778675323.0,68.0,0.09214520195817986,0.37174683700221584,-9.8116065180911,,,,,,,,,,
acc,1778675323.0,68.0,0.09237277202474747,0.371953882296493,-9.811472649162116,,,,,,,,,,
acc,1778675323.0,68.0,0.092598274057517,0.37180408014792793,-9.811375491536882,,,,,,,,,,
acc,1778675323.0,68.0,0.09246675191179614,0.3716556393194713,-9.811279216827081,,,,,,,,,,
acc,1778675323.0,68.0,0.09233642496674974,0.3718635132174904,-9.811148322248343,,,,,,,,,,
acc,1778675323.0,68.0,0.09220728236032182,0.37206949807341533,-9.811018617166562,,,,,,,,,,
acc,1778675323.0,68.0,0.09207931332919121,0.3722736110549432,-9.810890090771538,,,,,,,,,,
acc,1778675323.0,68.0,0.09159753255593767,0.3724758691737199,-9.810762732351334,,,,,,,,,,
acc,1778675323.0,68.0,0.09147510451327266,0.3723213237906486,-9.810672026023544,,,,,,,,,,
acc,1778675323.0,68.0,0.09135378902577714,0.37216818282654135,-9.810901623772907,,,,,,,,,,
acc,1778675323.0,68.0,0.09087860153271338,0.37201643351806685,-9.81080965534099,,,,,,,,,,
acc,1778675323.0,68.0,0.09040773226363967,0.37186606321790777,-9.811038002336598,,,,,,,,,,
acc,1778675323.0,68.0,0.08994114197475343,0.37171705939370586,-9.811264274250364,,,,,,,,,,
acc,1778675323.0,68.0,0.08947879177896062,0.3715694096270164,-9.811488489940498,,,,,,,,,,
acc,1778675323.0,68.0,0.0886656780327783,0.37142310161227216,-9.811710668093795,,,,,,,,,,
acc,1778675323.0,68.0,0.08785995336964991,0.3716330882052487,-9.811966321914706,,,,,,,,,,
acc,1778675323.0,68.0,0.08706155063838257,0.37148620157855977,-9.811864678432958,,,,,,,,,,
acc,1778675323.0,68.0,0.08627040329814621,0.3713406497668359,-9.81176395862441,,,,,,,,,,
acc,1778675323.0,68.0,0.08584141028780323,0.37119642063945824,-9.811983633386895,,,,,,,,,,
acc,1778675323.0,68.0,0.08541631569728166,0.3710535021760668,-9.81220131188271,,,,,,,,,,
acc,1778675323.0,68.0,0.08499508409836826,0.3709118824655578,-9.812417012253606,,,,,,,,,,
acc,1778675323.0,68.0,0.08457768038486474,0.37077154970509,-9.812630752476439,,,,,,,,,,
acc,1778675323.0,68.0,0.08416406976965961,0.3706324921991006,-9.812842550364671,,,,,,,,,,
acc,1778675323.0,68.0,0.08375421778182655,0.3704946983583294,-9.812732944521334,,,,,,,,,,
acc,1778675323.0,68.0,0.08334809026374942,0.37035815669885225,-9.812624334705005,,,,,,,,,,
acc,1778675323.0,68.0,0.08294565336827324,0.37022285584112335,-9.81251671186401,,,,,,,,,,
acc,1778675323.0,68.0,0.08254687355588124,0.37044374896243953,-9.812765040569566,,,,,,,,,,
acc,1778675323.0,68.0,0.08215171759189754,0.3703076703475607,-9.812656139135195,,,,,,,,,,
acc,1778675323.0,68.0,0.08247009943276234,0.3701728283250478,-9.812548227324964,,,,,,,,,,
acc,1778675323.0,68.0,0.0824306146336092,0.3700392116570795,-9.812441296145435,,,,,,,,,,
acc,1778675323.0,68.0,0.08274646199776052,0.3699068092079739,-9.812654815427754,,,,,,,,,,
acc,1778675323.0,68.0,0.08305943915353352,0.36977560994326014,-9.812546915688186,,,,,,,,,,
acc,1778675323.0,68.0,0.08336957218452475,0.3700005671041028,-9.812404501868404,,,,,,,,,,
acc,1778675323.0,68.0,0.08332191371817341,0.36986851587523295,-9.81190840898956,,,,,,,,,,
acc,1778675323.0,68.0,0.08327468833942334,0.36973766463776725,-9.81180729203197,,,,,,,,,,
acc,1778675323.0,68.0,0.08358286524703774,0.36996296653390326,-9.811671599368626,,,,,,,,,,
acc,1778675323.0,68.0,0.0838882416553206,0.3701862210416921,-9.811537139786685,,,,,,,,,,
acc,1778675323.0,68.0,0.08419084301423574,0.3700524828012948,-9.81143939665947,,,,,,,,,,
acc,1778675323.0,68.0,0.08449069454244072,0.36991995988102,-9.81134254175382,,,,,,,,,,
acc,1778675323.0,68.0,0.0851427851165723,0.36978864123648353,-9.811246566997905,,,,,,,,,,
acc,1778675323.0,68.0,0.08578894994895418,0.3696585159236793,-9.811151464393253,,,,,,,,,,
acc,1778675323.0,68.0,0.08642924289045152,0.36952957309806694,-9.81105722601409,,,,,,,,,,
acc,1778675323.0,68.0,0.08670875352798137,0.36975676578818856,-9.810608880232149,,,,,,,,,,
acc,1778675323.0,68.0,0.08698572417128764,0.3699818939124473,-9.810484077880277,,,,,,,,,,
acc,1778675323.0,68.0,0.0872601779027976,0.3702049762327722,-9.810360409643227,,,,,,,,,,
acc,1778675323.0,68.0,0.08753213759515421,0.37042603134057484,-9.810237865214637,,,,,,,,,,
acc,1778675323.0,68.0,0.0878016259131234,0.3706450776582994,-9.810116434381813,,,,,,,,,,
acc,1778675323.0,68.0,0.08806866531548382,0.37086213344095903,-9.80999610702488,,,,,,,,,,
acc,1778675323.0,68.0,0.08797830540282246,0.37107721677765765,-9.810267340309267,,,,,,,,,,
acc,1778675323.0,68.0,0.08859870277154074,0.3709353820586518,-9.810181136200795,,,,,,,,,,
acc,1778675323.0,68.0,0.08850352632842877,0.3707948362302793,-9.810095715452482,,,,,,,,,,
acc,1778675323.0,68.0,0.08840921477928756,0.3710105310510035,-9.80997557641582,,,,,,,,,,
acc,1778675323.0,68.0,0.08831576026436815,0.3715792383230825,-9.809856529114652,,,,,,,,,,
acc,1778675323.0,68.0,0.0882231549953533,0.37178780510409953,-9.809738563627809,,,,,,,,,,
acc,1778675323.0,68.0,0.0881313912547082,0.3719944765840707,-9.809621670124287,,,,,,,,,,
acc,1778675323.0,68.0,0.08804046139503702,0.3721992699865596,-9.809505838862428,,,,,,,,,,
acc,1778675323.0,68.0,0.08795035783844524,0.37240220237859795,-9.809391060189112,,,,,,,,,,
acc,1778675323.0,68.0,0.08786107307590793,0.37224832737697167,-9.809632296921258,,,,,,,,,,
acc,1778675323.0,68.0,0.08777259966664368,0.37209585067649625,-9.809871341474059,,,,,,,,,,
acc,1778675323.0,68.0,0.08768493023749421,0.3722997228107096,-9.809753241441156,,,,,,,,,,
acc,1778675323.0,68.0,0.08724308518110384,0.37214677909396804,-9.809671709116671,,,,,,,,,,
acc,1778675323.0,68.0,0.08680525528003213,0.37235018840257983,-9.809555423195224,,,,,,,,,,
acc,1778675323.0,68.0,0.08637140404670111,0.3725517492808941,-9.809440193992478,,,,,,,,,,
acc,1778675323.0,68.0,0.08558653218788709,0.3723965153891942,-9.809680984129967,,,,,,,,,,
acc,1778675323.0,68.0,0.08516375576178226,0.37224269214535854,-9.809600108443401,,,,,,,,,,
acc,1778675323.0,68.0,0.08474482120637163,0.37209026673020035,-9.80951996769358,,,,,,,,,,
acc,1778675323.0,68.0,0.08432969360888314,0.37193922644103444,-9.809440555201808,,,,,,,,,,
acc,1778675323.0,68.0,0.08427331050220342,0.37178955869061814,-9.809681341991773,,,,,,,,,,
acc,1778675323.0,68.0,0.08421743976201895,0.37164125100610185,-9.810274903714049,,,,,,,,,,
acc,1778675323.0,68.0,0.08380710464932609,0.37149429102798937,-9.810188631006465,,,,,,,,,,
acc,1778675323.0,68.0,0.08340049834648262,0.3713486665091074,-9.810103142278882,,,,,,,,,,
acc,1778675323.0,68.0,0.08299758696824878,0.37155932826550025,-9.80998293592919,,,,,,,,,,
acc,1778675323.0,68.0,0.08259833693733248,0.3714131127600127,-9.809899316397559,,,,,,,,,,
acc,1778675323.0,68.0,0.08255768697841681,0.3712682259478362,-9.809816456735492,,,,,,,,,,
acc,1778675323.0,68.0,0.08251740641479102,0.3711246557546038,-9.80973435003775,,,,,,,,,,
acc,1778675323.0,68.0,0.0824774918896143,0.3709823902156794,-9.80965298946185,,,,,,,,,,
acc,1778675323.0,68.0,0.08279291201281769,0.3708414174751603,-9.809572368227489,,,,,,,,,,
acc,1778675323.0,68.0,0.08310546584410193,0.3707017257848889,-9.809492479615988,,,,,,,,,,
acc,1778675323.0,68.0,0.0830602075328589,0.3705633035034735,-9.809732794403798,,,,,,,,,,
acc,1778675323.0,68.0,0.08337033237262682,0.3704261390953176,-9.809651447981881,,,,,,,,,,
acc,1778675323.0,68.0,0.08367763904123206,0.3702902211296585,-9.809570840772407,,,,,,,,,,
acc,1778675323.0,68.0,0.083627181306016,0.37051050103486893,-9.809845937900299,,,,,,,,,,
acc,1778675323.0,68.0,0.08393215391561303,0.3707287792097852,-9.809728068881178,,,,,,,,,,
acc,1778675323.0,68.0,0.08423435517473153,0.3705901111248005,-9.809646765417286,,,,,,,,,,
acc,1778675323.0,68.0,0.08453381026761943,0.37045270314579076,-9.809566200775025,,,,,,,,,,
acc,1778675323.0,68.0,0.08483054414965559,0.37067150650783787,-9.809450873789283,,,,,,,,,,
acc,1778675323.0,68.0,0.08547954421902652,0.37053335888880706,-9.80937208925328,,,,,,,,,,
acc,1778675323.0,68.0,0.08576768403774304,0.37039646664563747,-9.80929402064858,,,,,,,,,,
acc,1778675323.0,68.0,0.08605320547094931,0.37026081837030117,-9.80921666146927,,,,,,,,,,
acc,1778675323.0,68.0,0.08633613231279634,0.37048136538027543,-9.809104510823811,,,,,,,,,,
acc,1778675323.0,68.0,0.08661648814120032,0.3706999082349572,-9.808993379313954,,,,,,,,,,
acc,1778675323.0,68.0,0.08689429631980797,0.37091646514676635,-9.808883257678477,,,,,,,,,,
acc,1778675323.0,68.0,0.087169579999944,0.37113105416261355,-9.808774136740324,,,,,,,,,,
acc,1778675323.0,68.0,0.08744236212254089,0.3713436931654046,-9.808666007405831,,,,,,,,,,
acc,1778675323.0,68.0,0.08771266542005107,0.3711994373277168,-9.808913832298956,,,,,,,,,,
acc,1778675323.0,68.0,0.08798051241834176,0.3710564923711939,-9.808839927973528,,,,,,,,,,
acc,1778675323.0,68.0,0.08824592543857258,0.37091484638344857,-9.80876669523116,,,,,,,,,,
acc,1778675323.0,68.0,0.08850892659905608,0.3707744875603492,-9.809013605129444,,,,,,,,,,
acc,1778675323.0,68.0,0.08876953781710135,0.37063540420503593,-9.808938794161165,,,,,,,,,,
acc,1778675323.0,68.0,0.08867280924343084,0.3708525472072,-9.808829168583962,,,,,,,,,,
acc,1778675323.0,68.0,0.08857695966083354,0.37106771698931884,-9.809111005179311,,,,,,,,,,
acc,1778675323.0,68.0,0.08848198108165596,0.37128093148263025,-9.809390280671817,,,,,,,,,,
acc,1778675323.0,68.0,0.08838786559083332,0.3714922084554199,-9.809667018334979,,,,,,,,,,
acc,1778675323.0,68.0,0.08864957686285974,0.3717015655145024,-9.809231307282687,,,,,,,,,,
acc,1778675324.0,69.0,0.08819896690394367,0.3719090201066886,-9.80950948954285,,,,,,,,,,
acc,1778675324.0,69.0,0.08846239471004572,0.37211458952024,-9.81014010631576,,,,,,,,,,
acc,1778675324.0,69.0,0.08836845721608613,0.37267326236891907,-9.809700096283287,,,,,,,,,,
acc,1778675324.0,69.0,0.0882753733495177,0.3725169245984794,-9.810648448906377,,,,,,,,,,
acc,1778675324.0,69.0,0.08782816389288504,0.37307194133161486,-9.81020381951462,,,,,,,,,,
acc,1778675324.0,69.0,0.08738501831058373,0.37326694307647484,-9.810082698495172,,,,,,,,,,
acc,1778675324.0,69.0,0.0862714693875131,0.3738151442436869,-9.809643210190623,,,,,,,,,,
acc,1778675324.0,69.0,0.08548750741036062,0.37435836380727316,-9.809527183520661,,,,,,,,,,
acc,1778675324.0,69.0,0.08439120152227701,0.37454167561833507,-9.808773266288378,,,,,,,,,,
acc,1778675324.0,69.0,0.08362432586946766,0.3747233216419476,-9.809410573080772,,,,,,,,,,
acc,1778675324.0,69.0,0.08286441895327364,0.37490331701556084,-9.808302753236749,,,,,,,,,,
acc,1778675324.0,69.0,0.08211141744696256,0.37440723746219545,-9.8082344019276,,,,,,,,,,
acc,1778675324.0,69.0,0.0813652585992841,0.3745901051307004,-9.807137270188573,,,,,,,,,,
acc,1778675324.0,69.0,0.07995144098832789,0.3744163487660263,-9.806050108280022,,,,,,,,,,
acc,1778675324.0,69.0,0.07819550871438409,0.3742441713560957,-9.805008320013432,,,,,,,,,,
acc,1778675324.0,69.0,0.07645553290560178,0.37442852081658207,-9.80362103639587,,,,,,,,,,
acc,1778675324.0,69.0,0.07402143496411359,0.37425623280609155,-9.80256582711446,,,,,,,,,,
acc,1778675324.0,69.0,0.07093501692224796,0.3744404726532388,-9.80155570111101,,,,,,,,,,
acc,1778675324.0,69.0,0.06716671213436035,0.3742680760430042,-9.800554754298025,,,,,,,,,,
acc,1778675324.0,69.0,0.06307768835474889,0.37377776911948807,-9.799562903261956,,,,,,,,,,
acc,1778675324.0,69.0,0.05799641180596163,0.373291917699526,-9.798189608721342,,,,,,,,,,
acc,1778675324.0,69.0,0.05157693706717199,0.374194853917823,-9.797183755757276,,,,,,,,,,
acc,1778675324.0,69.0,0.04205659540211587,0.37437965150263985,-9.794447708354184,,,,,,,,,,
acc,1778675324.0,69.0,0.03020899286729417,0.3735333685233443,-9.794469765513988,,,,,,,,,,
acc,1778675324.0,69.0,0.017084688066153514,0.37304973805102726,-9.794172154448475,,,,,,,,,,
acc,1778675324.0,69.0,0.0005654731893281473,0.3725705024107367,-9.792528369723746,,,,,,,,,,
acc,1778675324.0,69.0,-0.01786244030307967,0.37209562166561483,-9.793668267294976,,,,,,,,,,
acc,1778675324.0,69.0,-0.03821719302495112,0.37091513190670805,-9.791283633713666,,,,,,,,,,
acc,1778675324.0,69.0,-0.06048128452033122,0.3697453694562161,-9.791689414532042,,,,,,,,,,
acc,1778675324.0,69.0,-0.08463736427835364,0.3685862368326537,-9.792801432259049,,,,,,,,,,
acc,1778675324.0,69.0,-0.11031326822406448,0.36708266620673613,-9.792235008267662,,,,,,,,,,
acc,1778675324.0,69.0,-0.1374951854421795,0.3655927587768512,-9.793697039288364,,,,,,,,,,
acc,1778675324.0,69.0,-0.16545950625516226,0.3634419514249807,-9.794471345633557,,,,,,,,,,
acc,1778675324.0,69.0,-0.19490904508045984,0.36131068881459305,-9.794528682388771,,,,,,,,,,
acc,1778675324.0,69.0,-0.22725017213529428,0.35919879333834026,-9.795650402650441,,,,,,,,,,
acc,1778675324.0,69.0,-0.2631310499624656,0.3567511268889023,-9.797436368577104,,,,,,,,,,
acc,1778675324.0,69.0,-0.2993603112909946,0.35432570278500397,-9.79885113394421,,,,,,,,,,
acc,1778675324.0,69.0,-0.33561531351234253,0.35192231890567466,-9.799543109816947,,,,,,,,,,
acc,1778675324.0,69.0,-0.3722508029956673,0.3495407749666911,-9.802039129724971,,,,,,,,,,
acc,1778675324.0,69.0,-0.4081984086648452,0.34718087250388546,-9.802702135792229,,,,,,,,,,
acc,1778675324.0,69.0,-0.4469430589496127,0.3448424148566049,-9.804104544662716,,,,,,,,,,
acc,1778675324.0,69.0,-0.4867200024433861,0.3425252071513216,-9.80751752617938,,,,,,,,,,
acc,1778675324.0,69.0,-0.5285847538331412,0.340229056285392,-9.808485711303161,,,,,,,,,,
acc,1778675324.0,69.0,-0.5714534455625008,0.3386282006569895,-9.812249336874013,,,,,,,,,,
acc,1778675324.0,69.0,-0.6142875446888094,0.33704189225999376,-9.81391996000588,,,,,,,,,,
acc,1778675324.0,69.0,-0.6574423367169936,0.3358249700450184,-9.816640297177084,,,,,,,,,,
acc,1778675324.0,69.0,-0.701234375130569,0.33461910619607366,-9.818625981019903,,,,,,,,,,
acc,1778675324.0,69.0,-0.7453384106000565,0.33342420022355473,-9.821942498225681,,,,,,,,,,
acc,1778675324.0,69.0,-0.7904260285757527,0.3318851814218828,-9.823880000145046,,,,,,,,,,
acc,1778675324.0,69.0,-0.8354588993603537,0.3307151190517626,-9.827113278842083,,,,,,,,,,
acc,1778675324.0,69.0,-0.8804020169891713,0.32888125045692074,-9.829323260725621,,,,,,,,,,
acc,1778675324.0,69.0,-0.924936729433041,0.3273835141570481,-9.831868131270724,,,,,,,,,,
acc,1778675324.0,69.0,-0.9697766810833859,0.32589938802217566,-9.834389876177472,,,,,,,,,,
acc,1778675324.0,69.0,-1.0155935369301328,0.32478371947980067,-9.835504333728876,,,,,,,,,,
acc,1778675324.0,69.0,-1.0617039809587574,0.3236781891919296,-9.838383501362395,,,,,,,,,,
acc,1778675324.0,69.0,-1.1073954121876726,0.32293767612721896,-9.840491068972963,,,,,,,,,,
acc,1778675324.0,69.0,-1.152671638266713,0.32255885422554137,-9.842969950264278,,,,,,,,,,
acc,1778675324.0,69.0,-1.1975364322444586,0.32147354164757097,-9.844716372486362,,,,,,,,,,
acc,1778675324.0,69.0,-1.2412835998011489,0.32039809147328313,-9.847156857780446,,,,,,,,,,
acc,1778675324.0,69.0,-1.284278258996336,0.3193324140811489,-9.849184700544837,,,,,,,,,,
acc,1778675324.0,69.0,-1.3272371901597937,0.3179214495877436,-9.851584581446657,,,,,,,,,,
acc,1778675324.0,69.0,-1.3694507758219372,0.31620383914199884,-9.854921066160466,,,,,,,,,,
acc,1778675324.0,69.0,-1.4106063305550154,0.3151762755559024,-9.857233325454393,,,,,,,,,,
acc,1778675324.0,69.0,-1.4513878984430015,0.3138030785330762,-9.860199011555226,,,,,,,,,,
acc,1778675324.0,69.0,-1.4921538399474361,0.31279733102316964,-9.863102253631974,,,,,,,,,,
acc,1778675324.0,69.0,-1.532549335105149,0.3118007228947423,-9.86597911350384,,,,,,,,,,
acc,1778675324.0,69.0,-1.5732521888713797,0.310138732455098,-9.868545857702465,,,,,,,,,,
acc,1778675324.0,69.0,-1.6135851696010912,0.3091662834107334,-9.871373250710795,,,,,,,,,,
acc,1778675324.0,69.0,-1.653906600357536,0.3082026711588067,-9.873536006518895,,,,,,,,,,
acc,1778675324.0,69.0,-1.6945715571478686,0.30657337677590557,-9.87567910903644,,,,,,,,,,
acc,1778675324.0,69.0,-1.7355414239247622,0.30495888803813775,-9.878441681094117,,,,,,,,,,
acc,1778675324.0,69.0,-1.7761389913196657,0.3033590704039538,-9.879865766400007,,,,,,,,,,
acc,1778675324.0,69.0,-1.8170775754640636,0.3020932581238984,-9.88230632046469,,,,,,,,,,
acc,1778675324.0,69.0,-1.8572891825729787,0.3011939195017782,-9.883659792841248,,,,,,,,,,
acc,1778675324.0,69.0,-1.897135380749619,0.30030275330521594,-9.8850009660104,,,,,,,,,,
acc,1778675324.0,69.0,-1.9366194905293415,0.2994196852699405,-9.885974989799722,,,,,,,,,,
acc,1778675324.0,69.0,-1.9753898312512994,0.29751524129186124,-9.886975656864596,,,,,,,,,,
acc,1778675324.0,69.0,-2.0131334214979275,0.29527313226308183,-9.887257297767423,,,,,,,,,,
acc,1778675324.0,69.0,-2.0501790681590295,0.2930513976148092,-9.887891341285934,,,,,,,,,,
acc,1778675324.0,69.0,-2.087917475979077,0.29120482321458846,-9.887809690217171,,,,,,,,,,
acc,1778675324.0,69.0,-2.124957978241801,0.28972999083485057,-9.888083752134179,,,,,,,,,,
acc,1778675324.0,69.0,-2.1616618879373073,0.2875586275487877,-9.887609896306989,,,,,,,,,,
acc,1778675324.0,69.0,-2.197712796196557,0.28576196676917986,-9.88714034647826,,,,,,,,,,
acc,1778675324.0,69.0,-2.2341105430350274,0.2839816325132446,-9.886000624975209,,,,,,,,,,
acc,1778675324.0,69.0,-2.270532509142541,0.28221747641907957,-9.884551783664774,,,,,,,,,,
acc,1778675324.0,69.0,-2.3059135614478357,0.2804693514729819,-9.883435584813872,,,,,,,,,,
acc,1778675324.0,69.0,-2.3406536333559926,0.27873711199719653,-9.88169058487151,,,,,,,,,,
acc,1778675324.0,69.0,-2.3750780170916608,0.2766656426454241,-9.880280909533877,,,,,,,,,,
acc,1778675324.0,69.0,-2.409864019886264,0.2742580351388719,-9.877854643701541,,,,,,,,,,
acc,1778675324.0,69.0,-2.4439789461527313,0.27187230591700473,-9.876124864220342,,,,,,,,,,
acc,1778675324.0,69.0,-2.4774643975304076,0.2691532851828681,-9.873736364989107,,,,,,,,,,
acc,1778675324.0,69.0,-2.5102905997861065,0.2671689054694096,-9.871724541385067,,,,,,,,,,
acc,1778675324.0,69.0,-2.5428185055152155,0.2644926252316172,-9.869730999517932,,,,,,,,,,
acc,1778675324.0,69.0,-2.5757252547989693,0.2618406647454086,-9.867045640388316,,,,,,,,,,
acc,1778675324.0,69.0,-2.608013508106556,0.2588933354953008,-9.865414083894894,,,,,,,,,,
acc,1778675324.0,69.0,-2.6396533914374833,0.25597278905799303,-9.863477886078417,,,,,,,,,,
acc,1778675324.0,69.0,-2.6713607204023404,0.25375322054020516,-9.861168817431443,,,,,,,,,,
acc,1778675324.0,69.0,-2.702779920232507,0.2505244212001857,-9.858206293146218,,,,,,,,,,
acc,1778675324.0,69.0,-2.734233076714937,0.2476799243126356,-9.855945128230823,,,,,,,,,,
acc,1778675324.0,69.0,-2.7657553847412117,0.24589067613786192,-9.854059481817387,,,,,,,,,,
acc,1778675324.0,69.0,-2.796991244959415,0.24340775428019437,-9.852190970547783,,,,,,,,,,
acc,1778675324.0,69.0,-2.827588289404459,0.2416573279331411,-9.84998446774956,,,,,,,,,,
acc,1778675324.0,69.0,-2.8575878265516024,0.23956784609131682,-9.84854344296763,,,,,,,,,,
acc,1778675324.0,69.0,-2.8876342210465844,0.23682291321363352,-9.84672505674575,,,,,,,,,,
acc,1778675324.0,69.0,-2.917407579591946,0.2351323242672952,-9.845917091334499,,,,,,,,,,
acc,1778675324.0,69.0,-2.9469103833090404,0.2334570979479628,-9.844867998349196,,,,,,,,,,
acc,1778675324.0,69.0,-2.976145090772766,0.2314421327864081,-9.844822344572334,,,,,,,,,,
acc,1778675324.0,69.0,-3.004439708855714,0.23015541072199233,-9.844031669384812,,,,,,,,,,
acc,1778675324.0,69.0,-3.032477209650584,0.2285254103367488,-9.843993615446777,,,,,,,,,,
acc,1778675324.0,69.0,-3.0606148914845224,0.22691022200062302,-9.843955907310379,,,,,,,,,,
acc,1778675324.0,69.0,-3.08814192027978,0.2263391114128241,-9.843528076517522,,,,,,,,,,
acc,1778675324.0,69.0,-3.1160932363405807,0.2250987612408518,-9.843494598798834,,,,,,,,,,
acc,1778675324.0,69.0,-3.142761154472512,0.22422464416665353,-9.843816387153923,,,,,,,,,,
acc,1778675324.0,69.0,-3.1691867373903597,0.2236779378075384,-9.843744795148348,,,,,,,,,,
acc,1778675324.0,69.0,-3.1964015875131206,0.2231361994478091,-9.84402881556356,,,,,,,,,,
acc,1778675324.0,69.0,-3.2230496648935505,0.22192495460535697,-9.845375158776095,,,,,,,,,,
acc,1778675324.0,69.0,-3.2487456545754676,0.2210796783699214,-9.846034829152803,,,,,,,,,,
acc,1778675324.0,69.0,-3.2745631120454255,0.22024208328103706,-9.847007972492156,,,,,,,,,,
acc,1778675324.0,69.0,-3.3001459625741716,0.21973156701979268,-9.847652805257464,,,,,,,,,,
acc,1778675324.0,69.0,-3.3261707673978806,0.21890622241338537,-9.848646740181863,,,,,,,,,,
acc,1778675324.0,69.0,-3.351639613612183,0.21737844505340392,-9.850661043333902,,,,,,,,,,
acc,1778675324.0,69.0,-3.3768770207736565,0.21550958898080871,-9.85020777642043,,,,,,,,,,
acc,1778675324.0,69.0,-3.401530130161636,0.2140126773137786,-9.852598359500732,,,,,,,,,,
acc,1778675324.0,69.0,-3.4248943095195292,0.213239301067738,-9.853156888173894,,,,,,,,,,
acc,1778675324.0,69.0,-3.4491110789363177,0.2124729526021706,-9.853710341417182,,,,,,,,,,
acc,1778675324.0,69.0,-3.473462748950086,0.21100363528885657,-9.855004201571147,,,,,,,,,,
acc,1778675325.0,70.0,-3.4975931318628097,0.21057707010670793,-9.855931333307995,,,,,,,,,,
acc,1778675325.0,70.0,-3.521149276707227,0.21050935210727276,-9.856140107305528,,,,,,,,,,
acc,1778675325.0,70.0,-3.543781430746906,0.20976781107841763,-9.85702142253652,,,,,,,,,,
acc,1778675325.0,70.0,-3.5669178559350905,0.2093524760071388,-9.857220290740063,,,,,,,,,,
acc,1778675325.0,70.0,-3.59019899896711,0.2079115149229617,-9.858127284554142,,,,,,,,,,
acc,1778675325.0,70.0,-3.6135880504063715,0.207193580809228,-9.858316103634337,,,,,,,,,,
acc,1778675325.0,70.0,-3.6357351619935536,0.20715660904907315,-9.858112750691607,,,,,,,,,,
acc,1778675325.0,70.0,-3.6569710868822716,0.2060905730440235,-9.857911245645969,,,,,,,,,,
acc,1778675325.0,70.0,-3.6794339033965517,0.20432429151383016,-9.857392095154363,,,,,,,,,,
acc,1778675325.0,70.0,-3.7020120645710755,0.202929022262949,-9.857552100635303,,,,,,,,,,
acc,1778675325.0,70.0,-3.725094996620265,0.2022563647634665,-9.856681251919994,,,,,,,,,,
acc,1778675325.0,70.0,-3.745199428563666,0.2033291527387794,-9.855534343634544,,,,,,,,,,
acc,1778675325.0,70.0,-3.7661505688825216,0.20403723031233365,-9.853652430364258,,,,,,,,,,
acc,1778675325.0,70.0,-3.7865563613967694,0.20541331185564876,-9.852533045407482,,,,,,,,,,
acc,1778675325.0,70.0,-3.8078416181427173,0.20748682148528536,-9.851033367184739,,,,,,,,,,
acc,1778675325.0,70.0,-3.828933452748197,0.20780215591700926,-9.84990227857285,,,,,,,,,,
acc,1778675325.0,70.0,-3.8487687283167524,0.2081146248601458,-9.850875772150124,,,,,,,,,,
acc,1778675325.0,70.0,-3.8684237579317187,0.20806928344583886,-9.850065592175149,,,,,,,,,,
acc,1778675325.0,70.0,-3.8882551413348483,0.20802435405537148,-9.851002107329714,,,,,,,,,,
acc,1778675325.0,70.0,-3.90687691397559,0.2086897656700384,-9.851255673877851,,,,,,,,,,
acc,1778675325.0,70.0,-3.9253294679390707,0.20899416877709906,-9.851506936230964,,,,,,,,,,
acc,1778675325.0,70.0,-3.9446437411157813,0.20965076754766532,-9.852430353685428,,,,,,,,,,
acc,1778675325.0,70.0,-3.964492435488037,0.21133079988558273,-9.852670941558916,,,,,,,,,,
acc,1778675325.0,70.0,-3.984160761975704,0.2137054982517262,-9.85251888699639,,,,,,,,,,
acc,1778675325.0,70.0,-4.002585465075761,0.21499372286651286,-9.853433108707696,,,,,,,,,,
acc,1778675325.0,70.0,-4.019813340136572,0.2180450684489882,-9.854339022757507,,,,,,,,,,
acc,1778675325.0,70.0,-4.037914063234626,0.22000379149632054,-9.854562266288255,,,,,,,,,,
acc,1778675325.0,70.0,-4.056560235226731,0.22123478263858523,-9.855102948622674,,,,,,,,,,
acc,1778675325.0,70.0,-4.075711396090671,0.22142518743112818,-9.854928794076207,,,,,,,,,,
acc,1778675325.0,70.0,-4.094369060214124,0.22058445274344776,-9.855111183908113,,,,,,,,,,
acc,1778675325.0,70.0,-4.11214724681139,0.22078076717318482,-9.854936954527147,,,,,,,,,,
acc,1778675325.0,70.0,-4.130118851425418,0.2223596596302434,-9.855509735464075,,,,,,,,,,
acc,1778675325.0,70.0,-4.148601574798586,0.22289480431762995,-9.85604180800949,,,,,,,,,,
acc,1778675325.0,70.0,-4.167271313964372,0.2230701242612461,-9.85656904553695,,,,,,,,,,
acc,1778675325.0,70.0,-4.185771398588959,0.2228888801525894,-9.858546860840537,,,,,,,,,,
acc,1778675325.0,70.0,-4.2034289320089515,0.22235431213988768,-9.857986440094042,,,,,,,,,,
acc,1778675325.0,70.0,-4.221955418177027,0.2225345436098889,-9.857786082863585,,,,,,,,,,
acc,1778675325.0,70.0,-4.239284142336582,0.22271313729124192,-9.858332973370405,,,,,,,,,,
acc,1778675325.0,70.0,-4.256455397949877,0.22360003167825507,-9.85717105572981,,,,,,,,,,
acc,1778675325.0,70.0,-4.272050750561542,0.22550827595831663,-9.857723535071575,,,,,,,,,,
acc,1778675325.0,70.0,-4.288569289606683,0.22601480872562144,-9.856531652034837,,,,,,,,,,
acc,1778675325.0,70.0,-4.305612151618575,0.22616177675469118,-9.85669947647063,,,,,,,,,,
acc,1778675325.0,70.0,-4.32250014275663,0.22701733287163323,-9.855836375727653,,,,,,,,,,
acc,1778675325.0,70.0,-4.338915202914822,0.22786511443036203,-9.853596747078855,,,,,,,,,,
acc,1778675325.0,70.0,-4.354471164431993,0.22902466860612902,-9.852761841270073,,,,,,,,,,
acc,1778675325.0,70.0,-4.369530804948417,0.2287893147318733,-9.851260084039081,,,,,,,,,,
acc,1778675325.0,70.0,-4.384453596404941,0.22752669942270673,-9.84941701168476,,,,,,,,,,
acc,1778675325.0,70.0,-4.398885811480712,0.22627555767541854,-9.846916249260483,,,,,,,,,,
acc,1778675325.0,70.0,-4.415281182701359,0.22432585254025872,-9.844402708164218,,,,,,,,,,
acc,1778675325.0,70.0,-4.430853128567938,0.22203889376115754,-9.842302473216758,,,,,,,,,,
acc,1778675325.0,70.0,-4.444189275378529,0.2183883458867211,-9.840221323397726,,,,,,,,,,
acc,1778675325.0,70.0,-4.458433634881546,0.21267667644545352,-9.838159085277814,,,,,,,,,,
acc,1778675325.0,70.0,-4.473258486584519,0.20598750053483378,-9.83682551968775,,,,,,,,,,
acc,1778675325.0,70.0,-4.488978022909003,0.19864918650364716,-9.835859043279536,,,,,,,,,,
acc,1778675325.0,70.0,-4.504199742727998,0.19453675492063197,-9.83454637849265,,,,,,,,,,
acc,1778675325.0,70.0,-4.518963673219951,0.1911361228092659,-9.832500215030201,,,,,,,,,,
acc,1778675325.0,70.0,-4.533238480018997,0.18847633448400875,-9.832566949019945,,,,,,,,,,
acc,1778675325.0,70.0,-4.548057998887879,0.18584071602626476,-9.833307505818963,,,,,,,,,,
acc,1778675325.0,70.0,-4.563452792488164,0.18358400959685167,-9.83262146771736,,,,,,,,,,
acc,1778675325.0,70.0,-4.578707691452632,0.17992794481730487,-9.830947767077507,,,,,,,,,,
acc,1778675325.0,70.0,-4.593114025259426,0.1759856357750548,-9.828934304706475,,,,,,,,,,
acc,1778675325.0,70.0,-4.606715017475951,0.17239861847710022,-9.827329604192448,,,,,,,,,,
acc,1778675325.0,70.0,-4.619837444699747,0.16678539668915698,-9.826697888112415,,,,,,,,,,
acc,1778675325.0,70.0,-4.632840626599384,0.1608682121484907,-9.82717231044235,,,,,,,,,,
acc,1778675325.0,70.0,-4.64746498864126,0.15777353077367623,-9.826577527162762,,,,,,,,,,
acc,1778675325.0,70.0,-4.66124651530828,0.15680127485797435,-9.828082452420198,,,,,,,,,,
acc,1778675325.0,70.0,-4.673518445427318,0.15548289217432085,-9.828508798659593,,,,,,,,,,
acc,1778675325.0,70.0,-4.687063220704401,0.15314708971491447,-9.827866367079707,,,,,,,,,,
acc,1778675325.0,70.0,-4.700165445293272,0.15118747480963224,-9.830459969291523,,,,,,,,,,
acc,1778675325.0,70.0,-4.7117287428029035,0.15130446739910242,-9.829835310604604,,,,,,,,,,
acc,1778675325.0,70.0,-4.725281266667862,0.1535147005090204,-9.828186928178308,,,,,,,,,,
acc,1778675325.0,70.0,-4.738710636863492,0.15432048703331505,-9.83109709391643,,,,,,,,,,
acc,1778675325.0,70.0,-4.750988572406757,0.15337960940963866,-9.830147169075454,,,,,,,,,,
acc,1778675325.0,70.0,-4.764184336739633,0.1528022525493712,-9.8302352855177,,,,,,,,,,
acc,1778675325.0,70.0,-4.776905218450315,0.1543244367649139,-9.831387495691262,,,,,,,,,,
acc,1778675325.0,70.0,-4.787771170978725,0.15860153062536442,-9.830754408447174,,,,,,,,,,
acc,1778675325.0,70.0,-4.798893353963222,0.1631947197291109,-9.832931301371366,,,,,,,,,,
acc,1778675325.0,70.0,-4.810269429914866,0.16703624630670263,-9.834733450777803,,,,,,,,,,
acc,1778675325.0,70.0,-4.822926500852758,0.17258219715641604,-9.836909689039835,,,,,,,,,,
acc,1778675325.0,70.0,-4.835468555228973,0.1801720457255685,-9.839066151522502,,,,,,,,,,
acc,1778675325.0,70.0,-4.847222199912644,0.1887578278263087,-9.841557979719544,,,,,,,,,,
acc,1778675325.0,70.0,-4.858514075806825,0.19446135344037446,-9.842571804639405,,,,,,,,,,
acc,1778675325.0,70.0,-4.870377770071474,0.1976992792713112,-9.844286349454409,,,,,,,,,,
acc,1778675325.0,70.0,-4.883198560836666,0.19984288717068077,-9.845985313962672,,,,,,,,,,
acc,1778675325.0,70.0,-4.895902847296694,0.2012570831456354,-9.847704334105948,,,,,,,,,,
acc,1778675325.0,70.0,-4.909201620804001,0.2019839898253901,-9.848662306251933,,,,,,,,,,
acc,1778675325.0,70.0,-4.921669613850232,0.2030592527901668,-9.8514219037292,,,,,,,,,,
acc,1778675325.0,70.0,-4.934379270300497,0.2041247446912018,-9.853446491700907,,,,,,,,,,
acc,1778675325.0,70.0,-4.948002841511783,0.20518055431952667,-9.855097711087323,,,,,,,,,,
acc,1778675325.0,70.0,-4.962886984399611,0.2037775042559149,-9.85634346946679,,,,,,,,,,
acc,1778675325.0,70.0,-4.97625150205996,0.2010028420330897,-9.856513003935007,,,,,,,,,,
acc,1778675325.0,70.0,-4.989139603622266,0.19754345180493785,-9.855971065161441,,,,,,,,,,
acc,1778675325.0,70.0,-5.002620521876861,0.19411549753543217,-9.854475639700407,,,,,,,,,,
acc,1778675325.0,70.0,-5.017718269897914,0.19210306451586168,-9.852603347231483,,,,,,,,,,
acc,1778675325.0,70.0,-5.030939489851426,0.19220322236477455,-9.85110303032881,,,,,,,,,,
acc,1778675325.0,70.0,-5.042656195794155,0.19475173545971786,-9.848586946933153,,,,,,,,,,
acc,1778675325.0,70.0,-5.053556506836957,0.19589271891118343,-9.848117033335011,,,,,,,,,,
acc,1778675325.0,70.0,-5.065422659683328,0.1949290395680353,-9.84420821879697,,,,,,,,,,
acc,1778675325.0,70.0,-5.073666814237617,0.1911698810511334,-9.842464722165058,,,,,,,,,,
acc,1778675325.0,70.0,-5.080806652939056,0.18850978605486468,-9.841092030712623,,,,,,,,,,
acc,1778675325.0,70.0,-5.08891101101492,0.1848089601844804,-9.840690224453384,,,,,,,,,,
acc,1778675325.0,70.0,-5.098006627191695,0.18430096227195367,-9.838588231092563,,,,,,,,,,
acc,1778675325.0,70.0,-5.10457031577261,0.1848269897706019,-9.840019507746074,,,,,,,,,,
acc,1778675325.0,70.0,-5.110044959130328,0.1828989627138027,-9.837568638412248,,,,,,,,,,
acc,1778675325.0,70.0,-5.115114891862687,0.1799590558302272,-9.837234344066657,,,,,,,,,,
acc,1778675325.0,70.0,-5.123617418870608,0.1760164642124401,-9.835518725642025,,,,,,,,,,
acc,1778675325.0,70.0,-5.132397653108437,0.17349407041500065,-9.834173659062298,,,,,,,,,,
acc,1778675325.0,70.0,-5.1390037965461435,0.17028465621968342,-9.832840815288773,,,,,,,,,,
acc,1778675325.0,70.0,-5.145904879913631,0.16884374822816076,-9.830135712307897,,,,,,,,,,
acc,1778675325.0,70.0,-5.154482584906287,0.1726339412286417,-9.829194523697035,,,,,,,,,,
acc,1778675325.0,70.0,-5.161917439586008,0.17571525393022988,-9.828936326087911,,,,,,,,,,
acc,1778675325.0,70.0,-5.167225932567975,0.1780586336658695,-9.827651074683951,,,,,,,,,,
acc,1778675325.0,70.0,-5.172486186539712,0.18073568056741451,-9.831560006344178,,,,,,,,,,
acc,1778675325.0,70.0,-5.176278774554961,0.18267846812295102,-9.831635284137104,,,,,,,,,,
acc,1778675325.0,70.0,-5.178652527858687,0.18776280840768955,-9.832774772301955,,,,,,,,,,
acc,1778675325.0,70.0,-5.18345397590798,0.19070664300010545,-9.83386841141952,,,,,,,,,,
acc,1778675325.0,70.0,-5.191690467061153,0.19152942297239747,-9.83601700691793,,,,,,,,,,
acc,1778675325.0,70.0,-5.200526541281516,0.19163479358000274,-9.838856019568299,,,,,,,,,,
acc,1778675325.0,70.0,-5.211731595327863,0.1959278047558897,-9.840994795429749,,,,,,,,,,
acc,1778675325.0,70.0,-5.223899721928122,0.1998268429647598,-9.847551212721989,,,,,,,,,,
acc,1778675325.0,70.0,-5.234892380650276,0.20195111735732152,-9.850604879870415,,,,,,,,,,
acc,1778675325.0,70.0,-5.244400776626929,0.20334615552655763,-9.851571988699881,,,,,,,,,,
acc,1778675325.0,70.0,-5.252438397559467,0.20093037485276308,-9.851465414849349,,,,,,,,,,
acc,1778675325.0,70.0,-5.26107741780652,0.19747164319680774,-9.849301000228238,,,,,,,,,,
acc,1778675325.0,70.0,-5.270347866729813,0.19716804516231096,-9.849889492362887,,,,,,,,,,
acc,1778675325.0,70.0,-5.276410370154608,0.1951278732512473,-9.848413836654833,,,,,,,,,,
acc,1778675325.0,70.0,-5.28067845005955,0.18998253701766857,-9.845886686920139,,,,,,,,,,
acc,1778675326.0,71.0,-5.282813441752863,0.18452899538577544,-9.84302753996456,,,,,,,,,,
acc,1778675326.0,71.0,-5.2852840033484245,0.1760013071957542,-9.838774509179492,,,,,,,,,,
acc,1778675326.0,71.0,-5.287022172875944,0.16755111128676325,-9.834276153214388,,,,,,,,,,
acc,1778675326.0,71.0,-5.29083885099443,0.16265636889776494,-9.82839880913942,,,,,,,,,,
acc,1778675326.0,71.0,-5.296005217362656,0.16373404557370547,-9.828467318806174,,,,,,,,,,
acc,1778675326.0,71.0,-5.301834568891504,0.16515689103203676,-9.822678254774376,,,,,,,,,,
acc,1778675326.0,71.0,-5.306191083006816,0.1683061486937273,-9.820775433052466,,,,,,,,,,
acc,1778675326.0,71.0,-5.313667206875898,0.16862255239562712,-9.81612116976168,,,,,,,,,,
acc,1778675326.0,71.0,-5.320365461529616,0.1679066808299077,-9.815307333239781,,,,,,,,,,
acc,1778675326.0,71.0,-5.3280322482812235,0.16822671455117516,-9.813116530320759,,,,,,,,,,
acc,1778675326.0,71.0,-5.335629365882635,0.1671594691530386,-9.814033835719169,,,,,,,,,,
acc,1778675326.0,71.0,-5.3463166545101135,0.1695805964624593,-9.814978308884301,,,,,,,,,,
acc,1778675326.0,71.0,-5.3537476191876205,0.17197972265363398,-9.818008503063602,,,,,,,,,,
acc,1778675326.0,71.0,-5.3593717249567305,0.17123334401998236,-9.818526392652187,,,,,,,,,,
acc,1778675326.0,71.0,-5.366009627209407,0.17116817702836432,-9.818010176044742,,,,,,,,,,
acc,1778675326.0,71.0,-5.373971580854653,0.17181354394902093,-9.81959295393955,,,,,,,,,,
acc,1778675326.0,71.0,-5.381506212262387,0.17174310460070719,-9.816262809129285,,,,,,,,,,
acc,1778675326.0,71.0,-5.391421640781893,0.17273820885305366,-9.818571389143528,,,,,,,,,,
acc,1778675326.0,71.0,-5.399152671951419,0.17617353580281442,-9.820894494219948,,,,,,,,,,
acc,1778675326.0,71.0,-5.409262715519909,0.182346387313571,-9.826994630831654,,,,,,,,,,
acc,1778675326.0,71.0,-5.424853856701241,0.19055744883860537,-9.833394296437652,,,,,,,,,,
acc,1778675326.0,71.0,-5.44030331903028,0.19450528817862606,-9.844243881951614,,,,,,,,,,
acc,1778675326.0,71.0,-5.453873057260008,0.19703288203287667,-9.851480706931998,,,,,,,,,,
acc,1778675326.0,71.0,-5.466254581898162,0.19847261287288004,-9.854179198781456,,,,,,,,,,
acc,1778675326.0,71.0,-5.475754861151779,0.19329688256380506,-9.854403894631986,,,,,,,,,,
acc,1778675326.0,71.0,-5.482364573848554,0.18575441384740385,-9.85601091956413,,,,,,,,,,
acc,1778675326.0,71.0,-5.492392897662766,0.1785999610894751,-9.852349839688669,,,,,,,,,,
acc,1778675326.0,71.0,-5.502330092714404,0.17048111268525412,-9.85504043360675,,,,,,,,,,
acc,1778675326.0,71.0,-5.509053283479946,0.16974835212944078,-9.8549023415203,,,,,,,,,,
acc,1778675326.0,71.0,-5.512236705196232,0.1679573467641005,-9.855084971712587,,,,,,,,,,
acc,1778675326.0,71.0,-5.517130531419633,0.17001625277505644,-9.859809511223864,,,,,,,,,,
acc,1778675326.0,71.0,-5.521624924991768,0.17102704916496678,-9.863106747270447,,,,,,,,,,
acc,1778675326.0,71.0,-5.528172780952369,0.16957939496858052,-9.86704845915892,,,,,,,,,,
acc,1778675326.0,71.0,-5.535016097419268,0.1692097902235251,-9.873119644450753,,,,,,,,,,
acc,1778675326.0,71.0,-5.5400578950268935,0.16536487873119604,-9.876650900344734,,,,,,,,,,
acc,1778675326.0,71.0,-5.546438248045211,0.16535303929262732,-9.87876569630798,,,,,,,,,,
acc,1778675326.0,71.0,-5.551731212771121,0.1716242181253649,-9.877418103793385,,,,,,,,,,
acc,1778675326.0,71.0,-5.552077548920543,0.17574410632962548,-9.877786595375055,,,,,,,,,,
acc,1778675326.0,71.0,-5.553130670505961,0.17705781470038662,-9.875702473085402,,,,,,,,,,
acc,1778675326.0,71.0,-5.556942954983661,0.17555535810830486,-9.87640602225593,,,,,,,,,,
acc,1778675326.0,71.0,-5.562814900266591,0.17719025816315553,-9.87713867253831,,,,,,,,,,
acc,1778675326.0,71.0,-5.564480382700329,0.17707095987225327,-9.878574597766535,,,,,,,,,,
acc,1778675326.0,71.0,-5.565065827161999,0.17904704922092327,-9.880316941960313,,,,,,,,,,
acc,1778675326.0,71.0,-5.567740255168321,0.17891087801386882,-9.882078956679406,,,,,,,,,,
acc,1778675326.0,71.0,-5.572129712973947,0.17600721146206605,-9.885848265479083,,,,,,,,,,
acc,1778675326.0,71.0,-5.574384979612429,0.17589866367961618,-9.886850083659096,,,,,,,,,,
acc,1778675326.0,71.0,-5.575590352276407,0.1740517695908393,-9.887132865539625,,,,,,,,,,
acc,1778675326.0,71.0,-5.579908475166114,0.1750258946808076,-9.884289374128828,,,,,,,,,,
acc,1778675326.0,71.0,-5.583477426038257,0.17844043309555274,-9.881436218469338,,,,,,,,,,
acc,1778675326.0,71.0,-5.585274612667327,0.17901971601927372,-9.880064358554558,,,,,,,,,,
acc,1778675326.0,71.0,-5.587410429789631,0.1788837931929222,-9.87551026350043,,,,,,,,,,
acc,1778675326.0,71.0,-5.590591741949299,0.17945904724220027,-9.873482320916265,,,,,,,,,,
acc,1778675326.0,71.0,-5.5930342124477175,0.17726033204319408,-9.868952543386031,,,,,,,,,,
acc,1778675326.0,71.0,-5.595454487879893,0.17366173159472226,-9.865173861207728,,,,,,,,,,
acc,1778675326.0,71.0,-5.5971428372967065,0.1704507939005795,-9.860435610741197,,,,,,,,,,
acc,1778675326.0,71.0,-5.5991708062253185,0.16311593077560077,-9.85985802671433,,,,,,,,,,
acc,1778675326.0,71.0,-5.60362962113911,0.1596458624514832,-9.856552452886387,,,,,,,,,,
acc,1778675326.0,71.0,-5.609432289103822,0.16004096336463097,-9.856045650010216,,,,,,,,,,
acc,1778675326.0,71.0,-5.61518222742463,0.1614973683553661,-9.85767325043693,,,,,,,,,,
acc,1778675326.0,71.0,-5.622974209730853,0.1643249097096883,-9.857475739221726,,,,,,,,,,
acc,1778675326.0,71.0,-5.628601090751975,0.16783668944412558,-9.862888486116884,,,,,,,,,,
acc,1778675326.0,71.0,-5.632082535975003,0.16886729182196153,-9.864098942973103,,,,,,,,,,
acc,1778675326.0,71.0,-5.636242277463398,0.16605489272809587,-9.865262905880856,,,,,,,,,,
acc,1778675326.0,71.0,-5.643487922414742,0.16152871760113938,-9.865706349972015,,,,,,,,,,
acc,1778675326.0,71.0,-5.647544021584425,0.1539199688445368,-9.870689333308551,,,,,,,,,,
acc,1778675326.0,71.0,-5.6540125277507,0.14847466539043935,-9.869415131822318,,,,,,,,,,
acc,1778675326.0,71.0,-5.6618066246252114,0.14410824421259363,-9.871986145424897,,,,,,,,,,
acc,1778675326.0,71.0,-5.669174924604481,0.14290520491206224,-9.873433398012125,,,,,,,,,,
acc,1778675326.0,71.0,-5.675766335188376,0.1441623631237339,-9.875577431853264,,,,,,,,,,
acc,1778675326.0,71.0,-5.684747114043636,0.14366876467504805,-9.87667258251056,,,,,,,,,,
acc,1778675326.0,71.0,-5.693646283323414,0.1431796516235093,-9.88049101976566,,,,,,,,,,
acc,1778675326.0,71.0,-5.700370290159953,0.13989074701982582,-9.884629729217366,,,,,,,,,,
acc,1778675326.0,71.0,-5.707388156794624,0.1369866909207886,-9.885607126041094,,,,,,,,,,
acc,1778675326.0,71.0,-5.7122479566429325,0.13410902437983402,-9.889734839089645,,,,,,,,,,
acc,1778675326.0,71.0,-5.7160341856806856,0.13370678200545572,-9.895564375730357,,,,,,,,,,
acc,1778675326.0,71.0,-5.722554750562098,0.13678686024190773,-9.895412998775292,,,,,,,,,,
acc,1778675326.0,71.0,-5.727986653032376,0.13983894938287195,-9.900481004558584,,,,,,,,,,
acc,1778675326.0,71.0,-5.73230430064407,0.14495760732043717,-9.898581111190982,,,,,,,,,,
acc,1778675326.0,71.0,-5.7341689422307525,0.14339187887939087,-9.90053211865647,,,,,,,,,,
acc,1778675326.0,71.0,-5.738785381390263,0.14045600751452886,-9.897531362949158,,,,,,,,,,
acc,1778675326.0,71.0,-5.745809135656584,0.13928615659332044,-9.897326617350274,,,,,,,,,,
acc,1778675326.0,71.0,-5.750319798774268,0.13709753621693765,-9.897478694077751,,,,,,,,,,
acc,1778675326.0,71.0,-5.75234019846201,0.13631316596207954,-9.89904925413676,,,,,,,,,,
acc,1778675326.0,71.0,-5.755052171136135,0.13589089424980336,-9.899576142248469,,,,,,,,,,
acc,1778675326.0,71.0,-5.760543735927764,0.13721179246703813,-9.897294015355463,,,,,,,,,,
acc,1778675326.0,71.0,-5.76353613278844,0.1412894293268434,-9.899611689699016,,,,,,,,,,
acc,1778675326.0,71.0,-5.7661463664645405,0.1439456412252692,-9.899033078109722,,,,,,,,,,
acc,1778675326.0,71.0,-5.769442813224102,0.14657771576010542,-9.897465809665293,,,,,,,,,,
acc,1778675326.0,71.0,-5.7723543429429505,0.14709156872126744,-9.896232259707016,,,,,,,,,,
acc,1778675326.0,71.0,-5.773145111640496,0.14760075222975605,-9.895364880961896,,,,,,,,,,
acc,1778675326.0,71.0,-5.777052398114376,0.14948967963043172,-9.891381680606504,,,,,,,,,,
acc,1778675326.0,71.0,-5.778155445799121,0.1510419655857619,-9.891268312378354,,,,,,,,,,
acc,1778675326.0,71.0,-5.780277869988515,0.14977591860634773,-9.887641814608184,,,,,,,,,,
acc,1778675326.0,71.0,-5.783090940053156,0.149231309006642,-9.88546813659568,,,,,,,,,,
acc,1778675326.0,71.0,-5.785878447362467,0.14833667748770127,-9.883349705454847,,,,,,,,,,
acc,1778675326.0,71.0,-5.788640624208734,0.15092885006987214,-9.881924953978805,,,,,,,,,,
acc,1778675326.0,71.0,-5.789993329860966,0.15523679990952538,-9.880158187641218,,,,,,,,,,
acc,1778675326.0,71.0,-5.791653210705029,0.15705633749233722,-9.876987610880452,,,,,,,,,,
acc,1778675326.0,71.0,-5.795747282393153,0.1568005314980457,-9.876650081772127,,,,,,,,,,
acc,1778675326.0,71.0,-5.800159112462179,0.15896082101080147,-9.87422131628905,,,,,,,,,,
acc,1778675326.0,71.0,-5.801052186250321,0.1631957832232359,-9.873873430520728,,,,,,,,,,
acc,1778675326.0,71.0,-5.801937144553891,0.16462351992644325,-9.871505391210304,,,,,,,,,,
acc,1778675326.0,71.0,-5.80316902289384,0.16635775909104464,-9.86841344360339,,,,,,,,,,
acc,1778675326.0,71.0,-5.807868372358157,0.16530749716162382,-9.867443896498258,,,,,,,,,,
acc,1778675326.0,71.0,-5.809720791089863,0.16565115001888778,-9.866163683299748,,,,,,,,,,
acc,1778675326.0,71.0,-5.811556376637314,0.16496228000504523,-9.865179076629323,,,,,,,,,,
acc,1778675326.0,71.0,-5.814759643790523,0.16463463162228958,-9.863245014972337,,,,,,,,,,
acc,1778675326.0,71.0,-5.81619446972779,0.16289009535390758,-9.862002957588784,,,,,,,,,,
acc,1778675326.0,71.0,-5.8193555898899465,0.16151638278842442,-9.860097757763173,,,,,,,,,,
acc,1778675326.0,71.0,-5.822168517103339,0.16153951516265316,-9.85820987075088,,,,,,,,,,
acc,1778675326.0,71.0,-5.823536017588141,0.161242969915522,-9.859072377603708,,,,,,,,,,
acc,1778675326.0,71.0,-5.828050289364641,0.16197852855300723,-9.855064010455266,,,,,,,,,,
acc,1778675326.0,71.0,-5.829364341374653,0.1609680612951,-9.857410463805135,,,,,,,,,,
acc,1778675326.0,71.0,-5.8320863176842535,0.16206107983926546,-9.85412713133225,,,,,,,,,,
acc,1778675326.0,71.0,-5.833363693748911,0.16626786956995143,-9.856091633010193,,,,,,,,,,
acc,1778675326.0,71.0,-5.836049327392413,0.1669577662520486,-9.856653921166725,,,,,,,,,,
acc,1778675326.0,71.0,-5.836261290992157,0.16661198461105986,-9.85650116709777,,,,,,,,,,
acc,1778675326.0,71.0,-5.838565631996012,0.16520445072578357,-9.855604365043444,,,,,,,,,,
acc,1778675326.0,71.0,-5.842943327595016,0.16313526901934752,-9.85375731011039,,,,,,,,,,
acc,1778675326.0,71.0,-5.843802577100815,0.16175932852762143,-9.853950345359255,,,,,,,,,,
acc,1778675326.0,71.0,-5.845683418537568,0.1614607858062862,-9.852437788145183,,,,,,,,,,
acc,1778675326.0,71.0,-5.847902139370334,0.1594256232988298,-9.85303327929313,,,,,,,,,,
acc,1778675326.0,71.0,-5.852869431115639,0.15772842200759674,-9.853587855683855,,,,,,,,,,
acc,1778675326.0,71.0,-5.855022851662204,0.15501724336883482,-9.855202296059117,,,,,,,,,,
acc,1778675326.0,71.0,-5.858186103829039,0.1526856724451077,-9.85406882741803,,,,,,,,,,
acc,1778675326.0,71.0,-5.861675581948869,0.14966534710512963,-9.852555193541436,,,,,,,,,,
acc,1778675326.0,71.0,-5.864103941563782,0.14667246787761024,-9.85169424909259,,,,,,,,,,
acc,1778675326.0,71.0,-5.867539643476816,0.1444167270783405,-9.84771742456941,,,,,,,,,,
acc,1778675327.0,72.0,-5.8692047829215666,0.14285591369459433,-9.849030248586432,,,,,,,,,,
acc,1778675327.0,72.0,-5.874333465470917,0.13925048353852953,-9.845077632203017,,,,,,,,,,
acc,1778675327.0,72.0,-5.876966268568634,0.1356778164229815,-9.84534954088041,,,,,,,,,,
acc,1778675327.0,72.0,-5.881349983153408,0.13281204381374537,-9.84490904605102,,,,,,,,,,
acc,1778675327.0,72.0,-5.883599558774368,0.1327765490556307,-9.84518248669398,,,,,,,,,,
acc,1778675327.0,72.0,-5.886148159605787,0.1327413768432727,-9.846553840400386,,,,,,,,,,
acc,1778675327.0,72.0,-5.887999171762359,0.13025725892630613,-9.848232199840762,,,,,,,,,,
acc,1778675327.0,72.0,-5.891572696200662,0.12882511458015347,-9.849185375162607,,,,,,,,,,
acc,1778675327.0,72.0,-5.897208051075362,0.13088465878237923,-9.848355052717748,,,,,,,,,,
acc,1778675327.0,72.0,-5.89824862783968,0.13292548762272532,-9.850407509514643,,,,,,,,,,
acc,1778675327.0,72.0,-5.8992797487395965,0.13391837112125124,-9.852086344492802,,,,,,,,,,
acc,1778675327.0,72.0,-5.898917128791791,0.13316289037951307,-9.852649525810191,,,,,,,,,,
acc,1778675327.0,72.0,-5.901681507615388,0.13102991297245561,-9.853917531143503,,,,,,,,,,
acc,1778675327.0,72.0,-5.902326462602843,0.1299457182738543,-9.854819043076622,,,,,,,,,,
acc,1778675327.0,72.0,-5.90541483120145,0.12539270134695177,-9.853334086247715,,,,,,,,,,
acc,1778675327.0,72.0,-5.906025860963266,0.11740239294439364,-9.854276394384875,,,,,,,,,,
acc,1778675327.0,72.0,-5.910819945303103,0.10912972271392937,-9.849282208951905,,,,,,,,,,
acc,1778675327.0,72.0,-5.91280172331844,0.10267156914829502,-9.848167033511292,,,,,,,,,,
acc,1778675327.0,72.0,-5.91508496005788,0.09733699612249175,-9.846707030049643,,,,,,,,,,
acc,1778675327.0,72.0,-5.91841235220644,0.09552957355107658,-9.842172084607062,,,,,,,,,,
acc,1778675327.0,72.0,-5.919615204339576,0.09441300446530318,-9.843890261665228,,,,,,,,,,
acc,1778675327.0,72.0,-5.922546467760415,0.09646577974990066,-9.83934541822514,,,,,,,,,,
acc,1778675327.0,72.0,-5.920943019883811,0.09676056849917003,-9.841089281589948,,,,,,,,,,
acc,1778675327.0,72.0,-5.921767913717308,0.09563281319283526,-9.836889358455645,,,,,,,,,,
acc,1778675327.0,72.0,-5.920171540668587,0.09419583854043649,-9.836525742469362,,,,,,,,,,
acc,1778675327.0,72.0,-5.924162642992952,0.09277192187464085,-9.832686756257605,,,,,,,,,,
acc,1778675327.0,72.0,-5.9239288796191465,0.09203538281054402,-9.833461727751997,,,,,,,,,,
acc,1778675327.0,72.0,-5.924371669672986,0.0864424914149189,-9.829295622890308,,,,,,,,,,
acc,1778675327.0,72.0,-5.921686732439732,0.08334969779902014,-9.82868154481113,,,,,,,,,,
acc,1778675327.0,72.0,-5.921120497145195,0.07886514355525515,-9.827043646895465,,,,,,,,,,
acc,1778675327.0,72.0,-5.919849474674055,0.07790000644017658,-9.829609230785046,,,,,,,,,,
acc,1778675327.0,72.0,-5.922423638386601,0.08425595034005298,-9.828708329853889,,,,,,,,,,
acc,1778675327.0,72.0,-5.923590039409482,0.08707546244866077,-9.830939319126239,,,,,,,,,,
acc,1778675327.0,72.0,-5.926840144729702,0.08919491498764189,-9.827896533595126,,,,,,,,,,
acc,1778675327.0,72.0,-5.92551714703332,0.09094014599569994,-9.830134899771807,,,,,,,,,,
acc,1778675327.0,72.0,-5.927684836965488,0.08432780712018599,-9.824685653152422,,,,,,,,,,
acc,1778675327.0,72.0,-5.925679725159771,0.07635569020952544,-9.820989762910797,,,,,,,,,,
acc,1778675327.0,72.0,-5.922982901446581,0.06568728429180236,-9.815233154188912,,,,,,,,,,
acc,1778675327.0,72.0,-5.921694955051231,0.058239527240452345,-9.812652560155735,,,,,,,,,,
acc,1778675327.0,72.0,-5.921838577671399,0.05714235052780433,-9.811870243378946,,,,,,,,,,
acc,1778675327.0,72.0,-5.920561029903833,0.05605514401106737,-9.810775568208678,,,,,,,,,,
acc,1778675327.0,72.0,-5.92348369847645,0.05671714977265955,-9.81001030791624,,,,,,,,,,
acc,1778675327.0,72.0,-5.926379808357186,0.05563380711377688,-9.810955839972477,,,,,,,,,,
acc,1778675327.0,72.0,-5.9275102591184865,0.05558970898719331,-9.810472914579545,,,,,,,,,,
acc,1778675327.0,72.0,-5.927246075495977,0.05451661153803322,-9.810384842816967,,,,,,,,,,
acc,1778675327.0,72.0,-5.928723625229294,0.053772732886960904,-9.80962313310002,,,,,,,,,,
acc,1778675327.0,72.0,-5.9294778156301335,0.05129628128081192,-9.814050857919895,,,,,,,,,,
acc,1778675327.0,72.0,-5.930580114372618,0.05200153148337768,-9.813255834618838,,,,,,,,,,
acc,1778675327.0,72.0,-5.932701796422875,0.050961040297423876,-9.81594671025674,,,,,,,,,,
acc,1778675327.0,72.0,-5.933419836634168,0.048510138929165926,-9.818648627897035,,,,,,,,,,
acc,1778675327.0,72.0,-5.930297715688849,0.046436471012897135,-9.821964936754206,,,,,,,,,,
acc,1778675327.0,72.0,-5.927203965886583,0.043352246754367316,-9.8256060716297,,,,,,,,,,
acc,1778675327.0,72.0,-5.920304693188667,0.043064791084535266,-9.827865251549122,,,,,,,,,,
acc,1778675327.0,72.0,-5.909669973265787,0.04277994756396723,-9.830423369403182,,,,,,,,,,
acc,1778675327.0,72.0,-5.8959726945560025,0.04423702513836398,-9.831218908605303,,,,,,,,,,
acc,1778675327.0,72.0,-5.879631143086458,0.04500642377363416,-9.835840854859203,,,,,,,,,,
acc,1778675327.0,72.0,-5.860633853368014,0.04470393636942673,-9.839675364769375,,,,,,,,,,
acc,1778675327.0,72.0,-5.839395432767809,0.04511413034436665,-9.841416229863542,,,,,,,,,,
acc,1778675327.0,72.0,-5.816610666851085,0.04445569333493783,-9.84661994084199,,,,,,,,,,
acc,1778675327.0,72.0,-5.7901993130145195,0.04522310490215624,-9.850037032299497,,,,,,,,,,
acc,1778675327.0,72.0,-5.762643591879032,0.04562858112112568,-9.849553941590486,,,,,,,,,,
acc,1778675327.0,72.0,-5.732179075425427,0.04496546922665912,-9.85226994219171,,,,,,,,,,
acc,1778675327.0,72.0,-5.700252061546227,0.041894612164330804,-9.852121531583771,,,,,,,,,,
acc,1778675327.0,72.0,-5.667230801930606,0.03849669862944807,-9.854104258419525,,,,,,,,,,
acc,1778675327.0,72.0,-5.634154649275509,0.03651402422456097,-9.855039567895359,,,,,,,,,,
acc,1778675327.0,72.0,-5.597545427949488,0.03593373756389789,-9.854511018456463,,,,,,,,,,
acc,1778675327.0,72.0,-5.5588551087029465,0.03883739850006037,-9.851573501062234,,,,,,,,,,
acc,1778675327.0,72.0,-5.517712137538642,0.039655864286133054,-9.846958838970657,,,,,,,,,,
acc,1778675327.0,72.0,-5.479392303536663,0.04220622524328866,-9.844444911045168,,,,,,,,,,
acc,1778675327.0,72.0,-5.44245008719204,0.0429940780367766,-9.840924427480942,,,,,,,,,,
acc,1778675327.0,72.0,-5.406908473350436,0.042354906234717625,-9.836690508041452,,,,,,,,,,
acc,1778675327.0,72.0,-5.372719231096913,0.04207651353559746,-9.833950422439662,,,,,,,,,,
acc,1778675327.0,72.0,-5.340260536465246,0.041800650629276695,-9.829815371104445,,,,,,,,,,
acc,1778675327.0,72.0,-5.307741836688567,0.04433152161744199,-9.822949162819892,,,,,,,,,,
acc,1778675327.0,72.0,-5.273779297046028,0.04648443245877217,-9.817529710537272,,,,,,,,,,
acc,1778675327.0,72.0,-5.2383860469964905,0.04964717955075396,-9.8114850763767,,,,,,,,,,
acc,1778675327.0,72.0,-5.203314420284767,0.050686882781298605,-9.804430467144213,,,,,,,,,,
acc,1778675327.0,72.0,-5.165082828910731,0.05033277626384044,-9.802338503837742,,,,,,,,,,
acc,1778675327.0,72.0,-5.127873082460262,0.05069182019538113,-9.797816285173388,,,,,,,,,,
acc,1778675327.0,72.0,-5.091356436961277,0.05207700149321576,-9.796103893263066,,,,,,,,,,
acc,1778675327.0,72.0,-5.0555265941099625,0.05242019540987886,-9.794442556453804,,,,,,,,,,
acc,1778675327.0,72.0,-5.018957438480343,0.05066596713321749,-9.791021489398785,,,,,,,,,,
acc,1778675327.0,72.0,-4.982720591804452,0.04995707981843621,-9.787950977464908,,,,,,,,,,
acc,1778675327.0,72.0,-4.948232899613611,0.0509939669425154,-9.784233929421513,,,,,,,,,,
acc,1778675327.0,72.0,-4.915442972740165,0.05273137345190398,-9.783354894882788,,,,,,,,,,
acc,1778675327.0,72.0,-4.8843353833568335,0.05235868836617796,-9.782838810025547,,,,,,,,,,
acc,1778675327.0,72.0,-4.853510472922528,0.051314951646818326,-9.782007947488848,,,,,,,,,,
acc,1778675327.0,72.0,-4.823675596241823,0.05060016692040873,-9.784627806118827,,,,,,,,,,
acc,1778675327.0,72.0,-4.794431309695288,0.04957241012762116,-9.783745192368333,,,,,,,,,,
acc,1778675327.0,72.0,-4.767227597050321,0.04784406006810622,-9.784609931732676,,,,,,,,,,
acc,1778675327.0,72.0,-4.740590564789541,0.04613141576361829,-9.785466813091322,,,,,,,,,,
acc,1778675327.0,72.0,-4.714905510456588,0.04478930535448805,-9.78628041349112,,,,,,,,,,
acc,1778675327.0,72.0,-4.689453859749812,0.04448879093534735,-9.788187018446886,,,,,,,,,,
acc,1778675327.0,72.0,-4.6659728334675385,0.04664027264844385,-9.787946499918132,,,,,,,,,,
acc,1778675327.0,72.0,-4.645473915234917,0.04944664182520578,-9.79189676501276,,,,,,,,,,
acc,1778675327.0,72.0,-4.627610547898896,0.05155307086445593,-9.794426762595904,,,,,,,,,,
acc,1778675327.0,72.0,-4.612003801897664,0.05328539671937941,-9.798637608064702,,,,,,,,,,
acc,1778675327.0,72.0,-4.600017550997998,0.0497839735573905,-9.804230054269228,,,,,,,,,,
acc,1778675327.0,72.0,-4.589879553493082,0.04876363362615671,-9.80838731932352,,,,,,,,,,
acc,1778675327.0,72.0,-4.582602414097583,0.048427003938686874,-9.81286176851125,,,,,,,,,,
acc,1778675327.0,72.0,-4.575071935656392,0.04880336588575559,-9.816585625128766,,,,,,,,,,
acc,1778675327.0,72.0,-4.5676098877099145,0.04985073696711748,-9.822369946091024,,,,,,,,,,
acc,1778675327.0,72.0,-4.560535115834425,0.04950422862188,-9.827391771497867,,,,,,,,,,
acc,1778675327.0,72.0,-4.550400929794861,0.0481314689978975,-9.832367962885618,,,,,,,,,,
acc,1778675327.0,72.0,-4.538619501817555,0.0457062803348197,-9.838008867571089,,,,,,,,,,
acc,1778675327.0,72.0,-4.52556076239039,0.04262869142086136,-9.842533618171089,,,,,,,,,,
acc,1778675327.0,72.0,-4.511591289479093,0.039934039841878474,-9.848082146146938,,,,,,,,,,
acc,1778675327.0,72.0,-4.496328893823679,0.035844009664540585,-9.852195882976474,,,,,,,,,,
acc,1778675327.0,72.0,-4.480850227886031,0.031116707880455695,-9.857337141207728,,,,,,,,,,
acc,1778675327.0,72.0,-4.466222151351686,0.027816734647164706,-9.86204121489679,,,,,,,,,,
acc,1778675327.0,72.0,-4.450697593028507,0.029409784997428773,-9.866702542020386,,,,,,,,,,
acc,1778675327.0,72.0,-4.434604184957844,0.03446703353076847,-9.87206693801654,,,,,,,,,,
acc,1778675327.0,72.0,-4.417947078181421,0.04089819141852977,-9.876637160013392,,,,,,,,,,
acc,1778675327.0,72.0,-4.401121869414726,0.046206004994040734,-9.88191127876763,,,,,,,,,,
acc,1778675327.0,72.0,-4.384769021050871,0.04660254946436569,-9.885007672975904,,,,,,,,,,
acc,1778675327.0,72.0,-4.368245305858644,0.04245192162185598,-9.886691558915173,,,,,,,,,,
acc,1778675327.0,72.0,-4.351161811307875,0.03730960197129946,-9.889354057925962,,,,,,,,,,
acc,1778675327.0,72.0,-4.332494224142952,0.03498275310438217,-9.890324018479511,,,,,,,,,,
acc,1778675327.0,72.0,-4.312966871865776,0.03615571399734708,-9.889510328738979,,,,,,,,,,
acc,1778675327.0,72.0,-4.2925520638332735,0.03731801603313657,-9.88941396574333,,,,,,,,,,
acc,1778675327.0,72.0,-4.2709383970645325,0.03534605248001026,-9.888573051417424,,,,,,,,,,
acc,1778675327.0,72.0,-4.249166174888861,0.03271757924418778,-9.888449711229953,,,,,,,,,,
acc,1778675327.0,72.0,-4.226562399846861,0.029048087811872857,-9.886623653529814,,,,,,,,,,
acc,1778675327.0,72.0,-4.203099124926889,0.02541194155356705,-9.884104256833341,,,,,,,,,,
acc,1778675327.0,72.0,-4.178819663969771,0.02319320836543228,-9.879832918112712,,,,,,,,,,
acc,1778675327.0,72.0,-4.150927197593815,0.02032019883713042,-9.87595536449592,,,,,,,,,,
acc,1778675327.0,72.0,-4.120164490310991,0.019567600284557226,-9.871758075882228,,,,,,,,,,
acc,1778675327.0,72.0,-4.089326357125252,0.018821840698679135,-9.86901879387648,,,,,,,,,,
acc,1778675328.0,73.0,-4.059478396024062,0.01911225798056445,-9.86452957706182,,,,,,,,,,
acc,1778675328.0,73.0,-4.029546696595423,0.022878710651396586,-9.863311350135664,,,,,,,,,,
acc,1778675328.0,73.0,-3.9985026197333537,0.026965898821586752,-9.861003795550685,,,,,,,,,,
acc,1778675328.0,73.0,-3.966675750265497,0.029951051742375157,-9.858717210032015,,,,,,,,,,
acc,1778675328.0,73.0,-3.9330437924012416,0.031169736398512924,-9.857196830024902,,,,,,,,,,
acc,1778675328.0,73.0,-3.8993624819092485,0.03273231755997118,-9.853205506244459,,,,,,,,,,
acc,1778675328.0,73.0,-3.863928438028902,0.03428069933121746,-9.84825654648513,,,,,,,,,,
acc,1778675328.0,73.0,-3.8267220846428316,0.03719938165237172,-9.845056396926573,,,,,,,,,,
acc,1778675328.0,73.0,-3.790528268788203,0.042185845047728,-9.839826518385285,,,,,,,,,,
acc,1778675328.0,73.0,-3.7543438837092644,0.046452557489290294,-9.837377402840094,,,,,,,,,,
acc,1778675328.0,73.0,-3.718488311120821,0.04997056509318034,-9.833530677476936,,,,,,,,,,
acc,1778675328.0,73.0,-3.6818936595637575,0.05242719494267011,-9.831493743965755,,,,,,,,,,
acc,1778675328.0,73.0,-3.6446021485975053,0.054151577511426435,-9.827345522447601,,,,,,,,,,
acc,1778675328.0,73.0,-3.605200245411282,0.053765986835913535,-9.821531158067826,,,,,,,,,,
acc,1778675328.0,73.0,-3.5661563927456976,0.05476826189711541,-9.817828429713241,,,,,,,,,,
acc,1778675328.0,73.0,-3.5274673369463585,0.055441961733243825,-9.812455510239312,,,,,,,,,,
acc,1778675328.0,73.0,-3.489839786559374,0.05610953956618024,-9.80784135694583,,,,,,,,,,
acc,1778675328.0,73.0,-3.453228601178948,0.057090518440969545,-9.80536342755401,,,,,,,,,,
acc,1778675328.0,73.0,-3.4169501066821164,0.05877252474685661,-9.806031719037845,,,,,,,,,,
acc,1778675328.0,73.0,-3.380681803360305,0.06217857911154145,-9.804244672349096,,,,,,,,,,
acc,1778675328.0,73.0,-3.3447430751055953,0.06555368219113766,-9.80215439738616,,,,,,,,,,
acc,1778675328.0,73.0,-3.3084209943898726,0.06541944079362694,-9.80079304967377,,,,,,,,,,
acc,1778675328.0,73.0,-3.2717190447897435,0.06283715395036271,-9.797278771366203,,,,,,,,,,
acc,1778675328.0,73.0,-3.2336112781784343,0.06027833270327148,-9.794861331284297,,,,,,,,,,
acc,1778675328.0,73.0,-3.1965597347245436,0.058452696451334475,-9.794276189302042,,,,,,,,,,
acc,1778675328.0,73.0,-3.1601998455221643,0.06324602804799283,-9.794335299412673,,,,,,,,,,
acc,1778675328.0,73.0,-3.124170363640385,0.07009009643549413,-9.79545877587628,,,,,,,,,,
acc,1778675328.0,73.0,-3.088113324848906,0.07793687532569685,-9.799695746744499,,,,,,,,,,
acc,1778675328.0,73.0,-3.05202897956116,0.08361804591316044,-9.800060579450898,,,,,,,,,,
acc,1778675328.0,73.0,-3.0162725376885087,0.08750825823938764,-9.8007415642858,,,,,,,,,,
acc,1778675328.0,73.0,-2.9801310778062433,0.08752948344643578,-9.800741922643567,,,,,,,,,,
acc,1778675328.0,73.0,-2.943643611160236,0.085811183095402,-9.798647974202577,,,,,,,,,,
acc,1778675328.0,73.0,-2.9095820056037858,0.0879421243131662,-9.799022328162357,,,,,,,,,,
acc,1778675328.0,73.0,-2.876859331682678,0.0910831105093763,-9.802197516492525,,,,,,,,,,
acc,1778675328.0,73.0,-2.844434013205985,0.0952604485389919,-9.803923986180912,,,,,,,,,,
acc,1778675328.0,73.0,-2.811948377203227,0.09762499948102893,-9.80531529070079,,,,,,,,,,
acc,1778675328.0,73.0,-2.7769892099193676,0.09684435983310555,-9.808433294013714,,,,,,,,,,
acc,1778675328.0,73.0,-2.740608388721426,0.09468644305695123,-9.807724821737073,,,,,,,,,,
acc,1778675328.0,73.0,-2.7052325942430016,0.09116376465950765,-9.808371654906741,,,,,,,,,,
acc,1778675328.0,73.0,-2.670178264480871,0.0887024973734092,-9.810396981122532,,,,,,,,,,
acc,1778675328.0,73.0,-2.6361524108749506,0.08697353768330292,-9.813113835554141,,,,,,,,,,
acc,1778675328.0,73.0,-2.6006964222050275,0.08281101488513111,-9.815486534141828,,,,,,,,,,
acc,1778675328.0,73.0,-2.563823294305384,0.08042565018655062,-9.816737273836102,,,,,,,,,,
acc,1778675328.0,73.0,-2.5272852375970363,0.08225056871003283,-9.815917838704175,,,,,,,,,,
acc,1778675328.0,73.0,-2.4893398654731174,0.0847333422217125,-9.816135259026886,,,,,,,,,,
acc,1778675328.0,73.0,-2.4517393081714243,0.0861641543809665,-9.816315209261262,,,,,,,,,,
acc,1778675328.0,73.0,-2.4169297067150395,0.08655255541834135,-9.818658816525176,,,,,,,,,,
acc,1778675328.0,73.0,-2.383465824948573,0.08658246522853932,-9.822684965428868,,,,,,,,,,
acc,1778675328.0,73.0,-2.348921663176074,0.08590217061011468,-9.826284062942486,,,,,,,,,,
acc,1778675328.0,73.0,-2.314691408958926,0.08455361964843701,-9.828892043633578,,,,,,,,,,
acc,1778675328.0,73.0,-2.279387847954886,0.0870154650190533,-9.827642689021063,,,,,,,,,,
acc,1778675328.0,73.0,-2.244405095271595,0.0950279081673007,-9.82604972569251,,,,,,,,,,
acc,1778675328.0,73.0,-2.2093852648190637,0.10193814109361458,-9.8251456670281,,,,,,,,,,
acc,1778675328.0,73.0,-2.1736187699811707,0.104596972697183,-9.82389486189582,,,,,,,,,,
acc,1778675328.0,73.0,-2.13750285193339,0.10410793954196966,-9.823294357829113,,,,,,,,,,
acc,1778675328.0,73.0,-2.1013601533460906,0.10362335029838593,-9.821740908384943,,,,,,,,,,
acc,1778675328.0,73.0,-2.0648359558042655,0.10104886104175835,-9.821159977590424,,,,,,,,,,
acc,1778675328.0,73.0,-2.0279692204013706,0.09988213743173993,-9.818915990919374,,,,,,,,,,
acc,1778675328.0,73.0,-1.9921119363743869,0.1004653486814814,-9.817047357437694,,,,,,,,,,
acc,1778675328.0,73.0,-1.9583198341942836,0.10104326021027843,-9.816225104533391,,,,,,,,,,
acc,1778675328.0,73.0,-1.9251897672738882,0.10477512721429433,-9.815694296608088,,,,,,,,,,
acc,1778675328.0,73.0,-1.892005796060711,0.10776314959485606,-9.815523283068096,,,,,,,,,,
acc,1778675328.0,73.0,-1.858448933889809,0.10969461026982318,-9.81404045045049,,,,,,,,,,
acc,1778675328.0,73.0,-1.824132104052158,0.10986918681401309,-9.816014263540431,,,,,,,,,,
acc,1778675328.0,73.0,-1.78977215419979,0.10862231168901237,-9.81623080763737,,,,,,,,,,
